*Cross Sections / Halogen oxides / Br oxides / BrO / Fleischmann(2004)_223K_300-385nm
*
*DATAFILE:	BrO_Fleischmann(2004)_223K_300-385nm.txt
*NAME:	bromine monoxide
*FORMULA:	BrO
*AUTHOR(YEAR):	Fleischmann(2004)
*T:	223K
*l:	300-385nm
*BIBLIOGRAPHY:	O.C. Fleischmann, J.P. Burrows, and J. Orphal, "Time-windowing Fourier transform absorption spectroscopy for flash photolysis investigations," J. Photochem. Photobiol. A.: Chem. 157, 127-136 (2003)
*O.C. Fleischmann, M. Hartmann, J.P. Burrows, and J. Orphal, "New ultraviolet absorption cross-sections of BrO at atmospheric temperatures measured by a time-windowing Fourier transform spectroscopy," J. Photochem. Photobiol. A.: Chem. 168, 117-132 (2004)
*COMMENTS:	Absorption measurements using a Fourier transform spectrometer* spectral resolution 4 cm-1 (vacuum wavelengths)
*Data from
*http://www.iup.physik.uni-bremen.de/gruppen/molspec/index.html
************************************************************************************************************************************************************
* Columns description :
* Column 1 : Wavelength in Vacuum [nm]
* Column 2 : BrO absorption cross-section @ 243 K [cm^^2 molec ^^-1]
************************************************************************************************************************************************************
300.75774     1.10700e-18
300.77086     3.13400e-18
300.78393     1.84900e-18
300.79700    -2.97600e-18
300.81012    -4.03100e-18
300.82320     7.92000e-19
300.83628     6.81600e-18
300.84935     7.32200e-18
300.86248     1.22400e-18
300.87556     3.66200e-20
300.88864     7.15200e-19
300.90173     2.58600e-18
300.91485     2.71500e-18
300.92794     3.49100e-18
300.94102     5.27000e-18
300.95412     4.01300e-18
300.96725     4.64300e-19
300.98034    -1.40900e-18
300.99343    -7.38700e-19
301.00656     1.48900e-18
301.01966     1.04200e-18
301.03275     2.98200e-19
301.04585     2.06800e-18
301.05899     5.58700e-18
301.07208     3.28300e-18
301.08519    -1.95800e-18
301.09829    -2.63400e-18
301.11143    -4.73600e-19
301.12453     1.28700e-18
301.13764     2.33900e-18
301.15075     3.26200e-18
301.16389     5.18300e-18
301.17701     3.24300e-18
301.19011     3.39300e-18
301.20326     4.85000e-18
301.21637     7.07900e-18
301.22949     7.01200e-18
301.24260     2.90800e-18
301.25575     3.28000e-18
301.26888     3.29100e-18
301.28199     6.46600e-19
301.29511    -2.44500e-19
301.30826     9.51300e-19
301.32139     1.11800e-18
301.33451    -1.59800e-19
301.34763    -8.77000e-19
301.36080     1.43800e-18
301.37392     4.16600e-18
301.38705     3.28900e-18
301.40021     2.22600e-18
301.41335     3.08300e-18
301.42648     2.54500e-18
301.43961    -2.51000e-19
301.45278    -1.00500e-18
301.46591     1.55100e-18
301.47905     2.09300e-18
301.49219    -3.73000e-19
301.50536    -9.75600e-19
301.51850     2.38400e-18
301.53164     4.64700e-18
301.54478     3.63600e-18
301.55796     3.12900e-18
301.57110     3.65900e-18
301.58425     3.53800e-18
301.59743     2.03700e-18
301.61058     6.27300e-19
301.62372     5.81900e-19
301.63688     3.95300e-19
301.65006     1.86200e-18
301.66321     3.15700e-18
301.67637     6.35400e-18
301.68952     9.87200e-18
301.70271     6.65500e-18
301.71586     3.57500e-18
301.72903     3.71500e-18
301.74218     2.31200e-18
301.75538     1.13900e-18
301.76854     2.63000e-18
301.78170     4.48000e-18
301.79490     5.79100e-18
301.80806     5.10000e-18
301.82123     7.16200e-18
301.83440     7.60200e-18
301.84760     5.95400e-18
301.86078     5.04300e-18
301.87394     7.17800e-18
301.88711     7.11700e-18
301.90032     5.04700e-18
301.91350     3.39300e-18
301.92667     5.60200e-18
301.93984     8.83900e-18
301.95306     7.29300e-18
301.96624     3.36000e-18
301.97941     2.91200e-18
301.99263     3.15700e-18
302.00582     1.92700e-18
302.01900     2.57800e-19
302.03218     1.69100e-18
302.04541     4.18300e-18
302.05859     4.08200e-18
302.07177     3.92900e-18
302.08496     2.77400e-18
302.09819     5.27400e-18
302.11138     5.92700e-18
302.12457     4.98900e-18
302.13777     5.69600e-18
302.15100     5.40400e-18
302.16419     3.65600e-18
302.17738     7.68500e-19
302.19059     1.51100e-18
302.20382     2.44100e-18
302.21702     8.07900e-19
302.23023     1.48400e-19
302.24346     2.03300e-18
302.25666     4.98300e-18
302.26987     4.85800e-18
302.28308     3.25800e-18
302.29632     3.90900e-18
302.30952     4.69100e-18
302.32274     5.26100e-18
302.33595     4.61100e-18
302.34919     3.23700e-18
302.36240     2.95700e-18
302.37562     2.19800e-18
302.38884     8.18200e-19
302.40209     9.58700e-19
302.41531     1.13500e-18
302.42853     9.85100e-19
302.44178     8.99800e-19
302.45500     2.34900e-18
302.46823     3.39400e-18
302.48145     2.84100e-18
302.49470     2.02800e-18
302.50794     1.30600e-18
302.52116     1.45100e-18
302.53438     2.19000e-18
302.54765     1.87800e-18
302.56088     2.63200e-18
302.57411     9.37700e-19
302.58734     1.78800e-19
302.60062     3.91700e-19
302.61385     1.18400e-18
302.62708     2.05500e-18
302.64036     3.51800e-18
302.65360     3.67700e-18
302.66684     2.40600e-18
302.68007     1.25300e-18
302.69336     1.64300e-18
302.70660     2.90800e-18
302.71984     3.40300e-18
302.73309     2.06600e-18
302.74637     1.22200e-18
302.75962     1.74000e-18
302.77286     2.89100e-18
302.78612     3.99700e-18
302.79940     3.92200e-18
302.81265     2.19000e-18
302.82591     6.04300e-19
302.83920     9.94900e-19
302.85246     2.37600e-18
302.86571     3.76000e-18
302.87897     1.26100e-18
302.89227    -1.14600e-18
302.90552    -1.88300e-18
302.91879    -1.44400e-18
302.93205    -3.94700e-19
302.94535    -7.29300e-19
302.95861     3.19900e-19
302.97188     4.62700e-20
302.98515    -1.45200e-18
302.99845    -1.00500e-18
303.01173     7.60400e-19
303.02500     2.94900e-18
303.03830     2.22400e-18
303.05157     1.42300e-21
303.06485    -5.86800e-19
303.07813    -1.16200e-18
303.09144    -2.15700e-18
303.10472    -1.86700e-18
303.11800    -8.83400e-20
303.13127     1.55900e-18
303.14459     7.99100e-19
303.15788     7.93500e-19
303.17116     7.71500e-19
303.18444     5.88000e-19
303.19777     1.70900e-19
303.21105    -9.64100e-19
303.22434     2.94800e-19
303.23766     2.64800e-18
303.25096     2.90300e-18
303.26425     2.28000e-18
303.27754     7.27100e-19
303.29088     1.10400e-19
303.30417    -2.75900e-19
303.31746    -6.75300e-19
303.33077    -2.55800e-19
303.34410    -4.89300e-19
303.35740     7.22300e-22
303.37069     1.08800e-18
303.38400     2.72300e-18
303.39734     2.43200e-18
303.41064     6.17600e-19
303.42395     3.06600e-19
303.43730     1.28800e-18
303.45060     2.71300e-18
303.46391     2.56300e-18
303.47722     1.59700e-18
303.49057     8.73000e-19
303.50388     1.77100e-18
303.51720     2.95800e-18
303.53051     2.78400e-18
303.54386     2.37100e-18
303.55718     2.22100e-18
303.57050     2.56600e-18
303.58382     1.44700e-18
303.59717    -7.59700e-19
303.61049    -9.42700e-19
303.62382     1.19300e-18
303.63718     3.41500e-18
303.65050     3.26600e-18
303.66384     1.33000e-18
303.67716     4.54100e-19
303.69053     9.90200e-19
303.70386     3.43000e-20
303.71719     2.68600e-19
303.73052    -3.23300e-19
303.74389    -7.89600e-19
303.75723     5.94500e-19
303.77056     2.24300e-18
303.78390     3.63600e-18
303.79727     9.33800e-19
303.81062    -1.19100e-18
303.82396    -3.90900e-19
303.83733     3.17300e-18
303.85068     3.13100e-18
303.86402    -2.27700e-19
303.87737    -1.33900e-18
303.89076     1.66600e-18
303.90410     3.68900e-18
303.91745     1.83400e-18
303.93079     2.82600e-19
303.94419     1.42200e-18
303.95754     4.35800e-18
303.97089     3.33800e-18
303.98425     6.97600e-19
303.99764     4.87700e-19
304.01100     2.64200e-18
304.02435     4.55300e-18
304.03776     4.23600e-18
304.05111     2.19900e-18
304.06447     7.17700e-19
304.07784     1.84000e-18
304.09124     2.58800e-18
304.10460     1.47300e-18
304.11797     1.30000e-19
304.13134     1.33800e-18
304.14474     4.93800e-18
304.15811     5.55400e-18
304.17149     3.33600e-18
304.18486     1.52800e-18
304.19827     1.70700e-18
304.21164     2.76700e-18
304.22502     3.01500e-18
304.23840     3.08900e-18
304.25181     5.69700e-18
304.26520     7.76700e-18
304.27857     6.81500e-18
304.29199     4.47100e-18
304.30537     5.02500e-18
304.31876     7.71200e-18
304.33214     7.38800e-18
304.34556     5.39600e-18
304.35896     4.98200e-18
304.37235     6.17800e-18
304.38573     7.38100e-18
304.39916     6.90100e-18
304.41256     6.76300e-18
304.42595     6.57900e-18
304.43934     6.43300e-18
304.45278     6.44700e-18
304.46617     6.00300e-18
304.47957     4.30800e-18
304.49300     4.77400e-18
304.50641     6.76300e-18
304.51981     6.80300e-18
304.53321     5.03600e-18
304.54666     4.20600e-18
304.56006     6.53000e-18
304.57347     8.00300e-18
304.58688     7.48800e-18
304.60032     6.50400e-18
304.61373     7.38000e-18
304.62714     8.43100e-18
304.64056     5.74100e-18
304.65401     2.83900e-18
304.66742     3.79600e-18
304.68084     6.95200e-18
304.69429     7.79900e-18
304.70771     3.96400e-18
304.72113     2.02500e-18
304.73455     3.43800e-18
304.74801     5.34500e-18
304.76143     5.01200e-18
304.77486     5.79000e-18
304.78828     6.87100e-18
304.80175     6.84100e-18
304.81517     5.66200e-18
304.82861     5.71400e-18
304.84203     6.78700e-18
304.85550     6.13700e-18
304.86894     4.57400e-18
304.88237     4.38800e-18
304.89584     6.39200e-18
304.90927     6.53000e-18
304.92272     3.13400e-18
304.93615     6.39300e-19
304.94963     2.26400e-18
304.96308     6.35200e-18
304.97652     7.92300e-18
304.98996     4.99300e-18
305.00343     1.68800e-18
305.01689     5.39700e-19
305.03033     1.68100e-18
305.04378     3.87200e-18
305.05727     4.87400e-18
305.07072     3.31700e-18
305.08417     2.65300e-18
305.09765     2.78100e-18
305.11111     1.77900e-18
305.12457     1.22900e-18
305.13802     1.11400e-18
305.15152     2.40400e-18
305.16498     3.94000e-18
305.17845     4.18700e-18
305.19193     4.16000e-18
305.20540     4.47700e-18
305.21888     3.68500e-18
305.23234     2.26700e-18
305.24583     1.97000e-18
305.25930     1.82700e-18
305.27278     1.49300e-18
305.28627     8.03500e-19
305.29974     8.73600e-19
305.31323     2.39400e-18
305.32670     4.41000e-18
305.34020     3.06400e-18
305.35367     6.33100e-19
305.36717    -1.94500e-20
305.38064     1.22100e-18
305.39415     2.55900e-18
305.40762     2.53100e-18
305.42112     2.40200e-18
305.43461     2.45700e-18
305.44811     2.02800e-18
305.46159     1.59900e-18
305.47509     1.29800e-18
305.48861     9.51800e-19
305.50209     3.05400e-19
305.51560    -6.19700e-19
305.52910     5.03200e-20
305.54260     9.19000e-19
305.55609     1.66700e-18
305.56960     1.57900e-18
305.58311     1.84900e-18
305.59662     2.47300e-18
305.61012     1.93900e-18
305.62364     6.30600e-19
305.63714     4.28100e-19
305.65066     1.42300e-18
305.66416     1.89100e-18
305.67768     1.76900e-18
305.69119     1.26400e-18
305.70471     7.31500e-19
305.71824     2.70700e-19
305.73175     5.07500e-19
305.74527     9.38400e-19
305.75878     1.59900e-18
305.77232     2.05100e-18
305.78583     2.05600e-18
305.79936     2.26700e-18
305.81289     2.26200e-18
305.82642     2.93900e-18
305.83993     2.92200e-18
305.85347     3.02700e-18
305.86700     2.13600e-18
305.88053     2.04900e-18
305.89406     2.66400e-18
305.90761     2.26000e-18
305.92115     2.77800e-19
305.93467    -1.74000e-18
305.94821    -1.08600e-18
305.96175     2.13100e-18
305.97530     4.21900e-18
305.98883     3.11500e-18
306.00238     2.81800e-18
306.01591     3.99800e-18
306.02947     4.79200e-18
306.04301     2.79300e-18
306.05656     8.00700e-19
306.07010     1.67900e-19
306.08365     2.05800e-19
306.09720     5.72300e-19
306.11076     1.46100e-18
306.12432     2.78600e-18
306.13787     2.35700e-18
306.15143     2.85000e-19
306.16498    -4.48900e-19
306.17854     1.45400e-18
306.19210     2.66200e-18
306.20567     9.37800e-19
306.21921    -1.01300e-18
306.23279    -4.17900e-19
306.24634     1.02600e-18
306.25992     1.11700e-18
306.27347    -5.33000e-19
306.28705    -4.14900e-19
306.30061     1.24100e-18
306.31419     1.37300e-18
306.32777    -4.97700e-19
306.34133    -5.93900e-19
306.35491     1.67200e-18
306.36848     4.25800e-18
306.38207     4.53000e-18
306.39563     2.38900e-18
306.40922     1.13000e-18
306.42279     1.20700e-18
306.43638     1.26200e-18
306.44995     8.37500e-19
306.46354     7.49200e-19
306.47712     1.44500e-18
306.49071     2.63100e-18
306.50429     3.29900e-18
306.51789     3.07600e-18
306.53147     2.83800e-18
306.54507     2.59400e-18
306.55866     2.16100e-18
306.57225     2.16300e-18
306.58585     1.71400e-18
306.59944     1.29000e-18
306.61305     1.40100e-18
306.62663     2.22000e-18
306.64024     1.59100e-18
306.65383    -7.37600e-20
306.66744    -1.07700e-18
306.68103     4.02200e-19
306.69464     3.09500e-18
306.70825     3.10100e-18
306.72186     7.71600e-19
306.73545     4.01400e-19
306.74907     2.09700e-18
306.76269     2.23800e-18
306.77629    -3.05000e-19
306.78991    -1.29900e-18
306.80352     1.16600e-18
306.81714     4.38800e-18
306.83075     3.50500e-18
306.84437     1.52200e-18
306.85798     1.31800e-18
306.87161     2.83700e-18
306.88522     3.14600e-18
306.89886     2.08500e-18
306.91247     2.19800e-18
306.92610     2.89200e-18
306.93971     3.40000e-18
306.95335     3.54300e-18
306.96699     3.67200e-18
306.98060     4.72100e-18
306.99425     4.80800e-18
307.00787     3.59400e-18
307.02151     2.54100e-18
307.03514     3.19600e-18
307.04878     4.27800e-18
307.06240     5.03200e-18
307.07605     4.92900e-18
307.08968     5.15500e-18
307.10333     6.20600e-18
307.11696     6.49800e-18
307.13061     6.10800e-18
307.14425     5.25200e-18
307.15790     5.55900e-18
307.17155     7.05000e-18
307.18520     7.99800e-18
307.19885     6.81600e-18
307.21249     5.42100e-18
307.22616     6.12500e-18
307.23980     7.83300e-18
307.25346     8.20500e-18
307.26710     7.26500e-18
307.28077     6.73600e-18
307.29441     6.97400e-18
307.30808     7.02800e-18
307.32173     6.73600e-18
307.33540     6.95000e-18
307.34905     8.35000e-18
307.36272     8.91600e-18
307.37640     7.48900e-18
307.39005     6.78600e-18
307.40373     6.70900e-18
307.41739     7.48200e-18
307.43107     8.49400e-18
307.44472     9.51200e-18
307.45840     1.08800e-17
307.47207     1.06000e-17
307.48575     8.56100e-18
307.49942     6.69100e-18
307.51311     6.42700e-18
307.52677     6.38200e-18
307.54046     6.25400e-18
307.55413     6.72400e-18
307.56782     8.07500e-18
307.58149     8.57100e-18
307.59518     8.24700e-18
307.60888     7.91900e-18
307.62256     8.28600e-18
307.63625     8.78600e-18
307.64993     7.68300e-18
307.66363     6.41700e-18
307.67731     6.27200e-18
307.69101     7.45500e-18
307.70470     7.31600e-18
307.71840     5.87200e-18
307.73209     5.13800e-18
307.74579     6.29900e-18
307.75948     8.49600e-18
307.77319     7.88700e-18
307.78688     5.41300e-18
307.80060     4.43600e-18
307.81431     5.49000e-18
307.82800     6.19200e-18
307.84171     5.06600e-18
307.85541     4.17100e-18
307.86913     4.74000e-18
307.88283     5.42600e-18
307.89655     6.00300e-18
307.91025     6.75700e-18
307.92397     7.45400e-18
307.93767     7.04600e-18
307.95140     5.73500e-18
307.96511     4.56800e-18
307.97883     4.28900e-18
307.99255     4.44300e-18
308.00628     4.45300e-18
308.02000     4.59200e-18
308.03371     4.52600e-18
308.04745     4.07300e-18
308.06117     3.20600e-18
308.07490     2.93500e-18
308.08862     3.74400e-18
308.10236     3.91500e-18
308.11608     3.52800e-18
308.12981     3.51300e-18
308.14354     3.87400e-18
308.15728     4.38900e-18
308.17101     4.35600e-18
308.18476     4.32900e-18
308.19848     4.31200e-18
308.21223     3.59000e-18
308.22597     2.62700e-18
308.23971     2.56200e-18
308.25346     3.08400e-18
308.26719     3.35800e-18
308.28095     3.13100e-18
308.29469     3.09900e-18
308.30844     2.94500e-18
308.32219     2.37000e-18
308.33594     2.32500e-18
308.34968     3.44800e-18
308.36344     4.66400e-18
308.37719     4.43800e-18
308.39095     3.26700e-18
308.40469     2.52600e-18
308.41847     2.90500e-18
308.43223     3.32400e-18
308.44598     3.00300e-18
308.45975     1.89600e-18
308.47350     6.43300e-19
308.48727    -4.29600e-22
308.50103     8.19800e-19
308.51481     1.96900e-18
308.52856     2.08600e-18
308.54234     1.35800e-18
308.55609     1.25700e-18
308.56988     2.15200e-18
308.58364     3.11000e-18
308.59742     3.23800e-18
308.61119     2.77600e-18
308.62497     2.29100e-18
308.63874     1.19600e-18
308.65252     3.03300e-19
308.66632     9.02200e-19
308.68008     2.62200e-18
308.69387     2.86700e-18
308.70765     1.46400e-18
308.72144     6.07000e-19
308.73522     1.19500e-18
308.74901     1.63700e-18
308.76279     1.12700e-18
308.77659     9.40700e-19
308.79037     2.29400e-18
308.80417     3.64100e-18
308.81795     3.12500e-18
308.83175     2.39600e-18
308.84554     2.40500e-18
308.85935     2.21300e-18
308.87315     1.49900e-18
308.88694     1.48000e-18
308.90076     2.19200e-18
308.91454     2.92600e-18
308.92835     2.61100e-18
308.94215     2.15900e-18
308.95597     2.27900e-18
308.96976     1.90200e-18
308.98357     6.08100e-19
308.99738    -6.32500e-20
309.01120     1.16200e-18
309.02499     3.04600e-18
309.03881     3.01500e-18
309.05262     1.74800e-18
309.06645     9.06200e-19
309.08027     5.86600e-19
309.09408     1.73100e-19
309.10791     2.72800e-19
309.12172     1.85600e-18
309.13554     2.74100e-18
309.14936     1.63500e-18
309.16319     4.06000e-19
309.17700     1.09900e-18
309.19085     2.87300e-18
309.20466     2.84500e-18
309.21850     1.58500e-18
309.23232     9.25800e-19
309.24616     9.35800e-19
309.25998     1.23500e-18
309.27382     6.02800e-19
309.28767     5.28800e-19
309.30149     1.13800e-18
309.31534     1.70600e-18
309.32917     2.23800e-18
309.34302     2.68000e-18
309.35685     2.37700e-18
309.37070     1.08700e-18
309.38454     8.05700e-19
309.39839     1.84800e-18
309.41222     2.53200e-18
309.42608     1.78500e-18
309.43992     1.19700e-20
309.45378    -8.83700e-19
309.46761    -3.51700e-19
309.48148     5.62300e-19
309.49534     1.34800e-18
309.50918     1.57400e-18
309.52306     1.05300e-18
309.53690     4.29500e-19
309.55076     1.34200e-20
309.56461     1.18400e-19
309.57849     4.33400e-19
309.59234     1.17700e-18
309.60621     2.16200e-18
309.62007     3.01200e-18
309.63394     2.71900e-18
309.64780     1.20100e-18
309.66167     4.13000e-19
309.67554     9.64300e-19
309.68941     1.75700e-18
309.70327     1.33700e-18
309.71716    -8.33000e-20
309.73104    -5.25900e-19
309.74491     6.32900e-19
309.75879     2.20400e-18
309.77266     2.49000e-18
309.78655     1.46400e-18
309.80042     7.89700e-19
309.81432     1.92300e-18
309.82819     3.59000e-18
309.84208     2.71000e-18
309.85595     7.84400e-19
309.86985     2.79000e-19
309.88373     2.04600e-18
309.89763     3.71100e-18
309.91151     2.06300e-18
309.92541    -4.04100e-19
309.93931    -2.83100e-19
309.95319     1.80900e-18
309.96710     3.28600e-18
309.98099     2.99900e-18
309.99489     2.81900e-18
310.00879     3.05200e-18
310.02270     2.81300e-18
310.03658     2.17600e-18
310.05049     1.99300e-18
310.06440     2.67800e-18
310.07831     3.30000e-18
310.09220     3.46500e-18
310.10613     3.76100e-18
310.12002     4.54800e-18
310.13394     4.74100e-18
310.14786     4.79300e-18
310.16177     5.36900e-18
310.17569     5.89900e-18
310.18959     5.93500e-18
310.20352     6.08800e-18
310.21743     7.16700e-18
310.23136     8.13000e-18
310.24527     8.43900e-18
310.25920     8.26400e-18
310.27311     8.35700e-18
310.28704     8.54500e-18
310.30096     8.01500e-18
310.31490     8.08700e-18
310.32881     9.42900e-18
310.34275     1.00300e-17
310.35670     9.17800e-18
310.37062     8.11400e-18
310.38455     7.99800e-18
310.39849     8.71400e-18
310.41243     9.39000e-18
310.42635     9.85500e-18
310.44031     1.05800e-17
310.45423     1.04800e-17
310.46818     9.05300e-18
310.48211     7.99900e-18
310.49607     8.53300e-18
310.51000     9.35200e-18
310.52395     8.86400e-18
310.53790     7.81800e-18
310.55185     8.04400e-18
310.56579     9.12200e-18
310.57974     8.85000e-18
310.59371     7.45900e-18
310.60765     7.14600e-18
310.62161     8.10900e-18
310.63557     9.40500e-18
310.64953     9.95900e-18
310.66347     1.06300e-17
310.67744     1.04300e-17
310.69140     9.06600e-18
310.70537     7.88600e-18
310.71932     7.82400e-18
310.73330     8.39600e-18
310.74725     8.90700e-18
310.76122     8.91300e-18
310.77518     8.71400e-18
310.78916     8.40200e-18
310.80314     7.89000e-18
310.81710     7.82100e-18
310.83109     8.22900e-18
310.84505     8.00700e-18
310.85903     6.42500e-18
310.87300     4.98500e-18
310.88699     5.28300e-18
310.90096     6.89100e-18
310.91495     7.29300e-18
310.92892     6.32700e-18
310.94291     6.08600e-18
310.95689     6.81300e-18
310.97088     6.73900e-18
310.98486     5.59900e-18
310.99886     5.38800e-18
311.01285     6.16100e-18
311.02684     6.22300e-18
311.04084     4.79500e-18
311.05482     3.36400e-18
311.06882     3.72700e-18
311.08281     4.99100e-18
311.09682     5.29700e-18
311.11080     4.63500e-18
311.12482     4.39800e-18
311.13881     4.92800e-18
311.15282     5.31400e-18
311.16681     4.93200e-18
311.18083     4.52800e-18
311.19482     4.84900e-18
311.20883     5.48500e-18
311.22286     5.21800e-18
311.23685     4.34200e-18
311.25087     3.89700e-18
311.26487     4.02800e-18
311.27890     4.20500e-18
311.29290     3.71000e-18
311.30693     3.08300e-18
311.32094     3.35700e-18
311.33497     4.30900e-18
311.34897     4.23100e-18
311.36300     3.51600e-18
311.37702     3.03700e-18
311.39105     3.44600e-18
311.40506     4.18300e-18
311.41910     3.72900e-18
311.43314     2.57100e-18
311.44715     2.34000e-18
311.46119     3.37600e-18
311.47522     4.20200e-18
311.48926     3.91800e-18
311.50328     3.74200e-18
311.51733     4.39700e-18
311.53135     5.35300e-18
311.54540     5.01300e-18
311.55943     3.69800e-18
311.57348     3.42700e-18
311.58751     3.96000e-18
311.60156     3.92800e-18
311.61560     3.41500e-18
311.62965     3.06100e-18
311.64368     2.98200e-18
311.65774     3.13100e-18
311.67180     3.02000e-18
311.68584     2.96500e-18
311.69990     3.09500e-18
311.71395     2.81700e-18
311.72801     2.44900e-18
311.74205     2.62100e-18
311.75612     3.11800e-18
311.77017     3.87500e-18
311.78423     4.40000e-18
311.79828     4.23200e-18
311.81236     2.96100e-18
311.82641     1.76600e-18
311.84048     1.76000e-18
311.85454     2.25000e-18
311.86861     2.13800e-18
311.88269     1.29300e-18
311.89674     1.10700e-18
311.91083     2.04500e-18
311.92489     2.76600e-18
311.93897     2.26000e-18
311.95304     1.55300e-18
311.96712     1.86000e-18
311.98119     2.18100e-18
311.99527     1.43000e-18
312.00935     5.79600e-19
312.02343     1.06800e-18
312.03750     2.50200e-18
312.05160     2.67200e-18
312.06567     1.34300e-18
312.07977     1.47500e-19
312.09386     2.03800e-19
312.10794     9.18100e-19
312.12204     1.44100e-18
312.13612     1.57200e-18
312.15023     1.43900e-18
312.16431     1.56800e-18
312.17841     1.91400e-18
312.19249     1.93400e-18
312.20660     1.51200e-18
312.22069     1.14700e-18
312.23480     1.19200e-18
312.24889     1.56700e-18
312.26300     1.87700e-18
312.27709     2.24900e-18
312.29120     2.45600e-18
312.30533     2.25700e-18
312.31942     1.55600e-18
312.33354     1.28500e-18
312.34764     2.06600e-18
312.36176     2.46600e-18
312.37586     1.91100e-18
312.38998     1.23800e-18
312.40409     1.39200e-18
312.41821     1.71200e-18
312.43232     1.45300e-18
312.44645     1.08800e-18
312.46056     1.40800e-18
312.47469     1.61100e-18
312.48881     1.11200e-18
312.50294     4.97000e-19
312.51707     6.13600e-19
312.53118     1.02100e-18
312.54533     9.51600e-19
312.55944     7.58200e-19
312.57358     1.05500e-18
312.58771     1.21300e-18
312.60185     6.54800e-19
312.61597     1.02800e-19
312.63011     2.74200e-19
312.64425     6.76000e-19
312.65839     6.31400e-19
312.67252     4.56600e-19
312.68667     7.59500e-19
312.70080     1.27900e-18
312.71495     1.09100e-18
312.72908     6.22400e-19
312.74325     3.75300e-19
312.75740     3.54500e-19
312.77153     2.55400e-19
312.78570     8.72100e-20
312.79984     3.25500e-19
312.81400     9.03300e-19
312.82814     1.35900e-18
312.84231     1.72000e-18
312.85645     1.29900e-18
312.87061     9.63000e-20
312.88477    -1.10200e-19
312.89894     1.20100e-18
312.91308     2.60300e-18
312.92725     2.08900e-18
312.94141     5.69500e-19
312.95559     1.75300e-19
312.96976     7.85900e-19
312.98392     8.35200e-19
312.99810     3.79600e-19
313.01225     8.03000e-19
313.02643     2.11100e-18
313.04060     2.27000e-18
313.05478     1.04800e-18
313.06894     8.69300e-19
313.08314     1.47700e-18
313.09730     1.45200e-18
313.11149     4.27300e-19
313.12565     9.27700e-20
313.13985     1.05400e-18
313.15402     1.85000e-18
313.16821     1.46400e-18
313.18241     7.93000e-19
313.19659     8.21300e-19
313.21078     1.42100e-18
313.22496     1.79000e-18
313.23917     1.93700e-18
313.25334     2.25700e-18
313.26754     2.79800e-18
313.28174     3.50200e-18
313.29594     3.52500e-18
313.31012     2.86400e-18
313.32433     2.48100e-18
313.33852     3.53400e-18
313.35273     5.56300e-18
313.36692     6.40100e-18
313.38114     5.13700e-18
313.39535     3.94400e-18
313.40954     4.71400e-18
313.42376     6.88300e-18
313.43796     8.35600e-18
313.45218     8.28800e-18
313.46638     8.22600e-18
313.48061     9.10700e-18
313.49481     9.49400e-18
313.50903     9.04700e-18
313.52324     8.30500e-18
313.53747     8.51400e-18
313.55167     9.53500e-18
313.56590     1.01700e-17
313.58012     9.80400e-18
313.59435     9.75800e-18
313.60856     1.09300e-17
313.62279     1.20300e-17
313.63703     1.14300e-17
313.65125     1.00900e-17
313.66548     1.00700e-17
313.67971     1.16900e-17
313.69395     1.21200e-17
313.70817     9.93100e-18
313.72242     8.16500e-18
313.73664     8.94300e-18
313.75089     1.10400e-17
313.76511     1.18400e-17
313.77937     1.12800e-17
313.79359     1.09500e-17
313.80784     1.07200e-17
313.82208     9.95200e-18
313.83633     9.16200e-18
313.85059     9.22600e-18
313.86482     1.00400e-17
313.87909     1.01000e-17
313.89332     9.44100e-18
313.90758     9.12600e-18
313.92183     9.44900e-18
313.93609     9.50200e-18
313.95033     9.34900e-18
313.96460     9.16000e-18
313.97885     9.20500e-18
313.99312     8.84800e-18
314.00736     8.50100e-18
314.02164     8.54300e-18
314.03589     8.70600e-18
314.05016     8.37600e-18
314.06443     7.74900e-18
314.07870     7.53200e-18
314.09297     7.72200e-18
314.10723     7.93000e-18
314.12151     7.74800e-18
314.13577     7.38600e-18
314.15005     7.28800e-18
314.16431     7.44700e-18
314.17861     7.79600e-18
314.19287     8.33200e-18
314.20716     8.07600e-18
314.22143     7.40100e-18
314.23572     7.11900e-18
314.24999     7.27800e-18
314.26428     7.24000e-18
314.27858     6.93200e-18
314.29285     6.84500e-18
314.30715     7.29600e-18
314.32143     7.70400e-18
314.33573     7.32400e-18
314.35001     6.79800e-18
314.36431     6.74500e-18
314.37860     7.00300e-18
314.39290     7.05700e-18
314.40718     6.65800e-18
314.42150     6.05300e-18
314.43578     5.64200e-18
314.45009     5.49000e-18
314.46438     5.75600e-18
314.47870     5.89700e-18
314.49301     5.71400e-18
314.50730     5.63800e-18
314.52163     5.78600e-18
314.53592     5.62600e-18
314.55024     5.04200e-18
314.56454     4.87300e-18
314.57886     5.60600e-18
314.59317     6.25200e-18
314.60749     5.39700e-18
314.62180     4.14400e-18
314.63612     4.23200e-18
314.65043     5.54400e-18
314.66476     6.17100e-18
314.67907     5.35800e-18
314.69340     4.51500e-18
314.70771     4.64400e-18
314.72206     4.99300e-18
314.73639     4.55200e-18
314.75070     3.97500e-18
314.76504     3.85300e-18
314.77937     4.03500e-18
314.79370     3.91000e-18
314.80802     3.77600e-18
314.82238     4.09900e-18
314.83670     4.44000e-18
314.85104     4.38800e-18
314.86538     3.91700e-18
314.87972     3.33600e-18
314.89405     3.02400e-18
314.90840     3.03900e-18
314.92274     3.53200e-18
314.93709     4.00700e-18
314.95144     3.64600e-18
314.96579     2.86300e-18
314.98014     2.68300e-18
314.99448     3.32200e-18
315.00884     3.70900e-18
315.02319     3.31100e-18
315.03755     2.90100e-18
315.05189     2.86400e-18
315.06626     2.79200e-18
315.08061     2.46300e-18
315.09497     2.27200e-18
315.10932     2.81200e-18
315.12370     3.51500e-18
315.13805     3.61000e-18
315.15242     3.43100e-18
315.16680     3.60600e-18
315.18116     3.56700e-18
315.19553     2.70800e-18
315.20989     1.84700e-18
315.22428     1.98700e-18
315.23864     2.91100e-18
315.25302     3.32700e-18
315.26739     2.75200e-18
315.28177     1.82400e-18
315.29613     1.30000e-18
315.31052     1.36800e-18
315.32490     1.95200e-18
315.33929     2.38700e-18
315.35365     2.28700e-18
315.36806     1.95000e-18
315.38245     1.99400e-18
315.39682     2.28300e-18
315.41122     2.37000e-18
315.42560     2.18800e-18
315.44000     2.31600e-18
315.45438     2.84200e-18
315.46879     3.12500e-18
315.48317     2.76800e-18
315.49757     2.15300e-18
315.51196     1.94500e-18
315.52637     2.06400e-18
315.54076     2.23000e-18
315.55517     2.35900e-18
315.56956     2.22700e-18
315.58398     1.76800e-18
315.59839     1.62800e-18
315.61278     2.11200e-18
315.62720     2.35900e-18
315.64160     1.76800e-18
315.65602     1.10200e-18
315.67043     1.46900e-18
315.68485     2.33700e-18
315.69925     2.15400e-18
315.71367     1.02700e-18
315.72808     5.92500e-19
315.74251     1.30500e-18
315.75691     1.71300e-18
315.77135     1.28700e-18
315.78576     9.98100e-19
315.80019     1.52000e-18
315.81461     1.99800e-18
315.82905     1.53000e-18
315.84348     9.02800e-19
315.85790     1.19700e-18
315.87234     1.97900e-18
315.88676     1.97300e-18
315.90120     1.39700e-18
315.91563     9.47600e-19
315.93007     1.10000e-18
315.94450     1.71500e-18
315.95894     2.22000e-18
315.97338     2.21800e-18
315.98782     1.56600e-18
316.00225     1.03800e-18
316.01671     1.24000e-18
316.03114     1.90400e-18
316.04560     1.82800e-18
316.06005     8.32700e-19
316.07450     1.86000e-19
316.08895     5.88800e-19
316.10339     1.37900e-18
316.11786     1.49500e-18
316.13230     1.08000e-18
316.14676     9.34500e-19
316.16121     1.06300e-18
316.17568     1.00900e-18
316.19013     1.09400e-18
316.20459     1.39400e-18
316.21905     1.46600e-18
316.23352     1.01100e-18
316.24797     6.18400e-19
316.26245     1.00400e-18
316.27693     1.75900e-18
316.29138     1.94000e-18
316.30586     1.48100e-18
316.32033     1.23000e-18
316.33481     1.51800e-18
316.34927     1.60800e-18
316.36375     1.21900e-18
316.37822     9.33300e-19
316.39271     1.34500e-18
316.40717     2.12400e-18
316.42167     2.18300e-18
316.43614     1.43700e-18
316.45063     8.54800e-19
316.46510     8.59000e-19
316.47960     9.79100e-19
316.49410     5.47500e-19
316.50857    -4.64500e-20
316.52308     5.82500e-20
316.53756     1.08800e-18
316.55205     2.00900e-18
316.56653     1.63900e-18
316.58105     4.79600e-19
316.59553    -2.40000e-19
316.61003     1.31700e-19
316.62453     1.00900e-18
316.63904     1.40100e-18
316.65352     9.42500e-19
316.66803     2.81100e-19
316.68254     1.97400e-19
316.69705     6.91300e-19
316.71154     8.89600e-19
316.72607     4.19000e-19
316.74058     1.25900e-20
316.75508     7.99900e-21
316.76960     3.51300e-19
316.78411     6.07700e-19
316.79863     6.67800e-19
316.81313     7.08900e-19
316.82767     6.31800e-19
316.84217     3.39700e-19
316.85670     1.77100e-19
316.87122     3.90600e-19
316.88575     7.08600e-19
316.90026     1.03600e-18
316.91479     1.40100e-18
316.92931     1.87500e-18
316.94385     2.54600e-18
316.95839     3.50700e-18
316.97290     4.98100e-18
316.98745     6.85200e-18
317.00197     8.64000e-18
317.01651     9.82200e-18
317.03105     1.06700e-17
317.04559     1.14700e-17
317.06012     1.23500e-17
317.07467     1.38500e-17
317.08920     1.55000e-17
317.10375     1.66000e-17
317.11828     1.67600e-17
317.13285     1.67000e-17
317.14738     1.69700e-17
317.16193     1.67700e-17
317.17649     1.55500e-17
317.19104     1.45600e-17
317.20560     1.50300e-17
317.22014     1.61100e-17
317.23471     1.58900e-17
317.24925     1.44300e-17
317.26382     1.32500e-17
317.27837     1.29900e-17
317.29294     1.32900e-17
317.30749     1.35800e-17
317.32206     1.38700e-17
317.33662     1.37300e-17
317.35119     1.30700e-17
317.36574     1.25500e-17
317.38033     1.26900e-17
317.39490     1.30400e-17
317.40946     1.28900e-17
317.42404     1.26700e-17
317.43861     1.26600e-17
317.45319     1.22900e-17
317.46776     1.11400e-17
317.48235     1.02700e-17
317.49692     1.05700e-17
317.51150     1.11100e-17
317.52607     1.07500e-17
317.54067     9.90200e-18
317.55524     9.70800e-18
317.56983     1.05200e-17
317.58442     1.15300e-17
317.59901     1.18200e-17
317.61361     1.09000e-17
317.62819     9.49200e-18
317.64280     8.99800e-18
317.65738     9.27600e-18
317.67198     9.39300e-18
317.68657     8.48100e-18
317.70118     7.84700e-18
317.71576     8.62100e-18
317.73037     9.70800e-18
317.74497     9.43800e-18
317.75958     8.11300e-18
317.77417     7.70300e-18
317.78879     8.06000e-18
317.80338     7.60400e-18
317.81800     6.79100e-18
317.83260     7.07300e-18
317.84722     8.07500e-18
317.86184     7.89200e-18
317.87644     6.81400e-18
317.89108     6.71500e-18
317.90568     7.61900e-18
317.92030     7.79400e-18
317.93491     7.08000e-18
317.94955     6.76600e-18
317.96415     7.19500e-18
317.97878     6.69700e-18
317.99341     5.31800e-18
318.00804     5.12800e-18
318.02265     6.25300e-18
318.03729     6.75400e-18
318.05191     5.74000e-18
318.06655     4.71100e-18
318.08119     4.90000e-18
318.09582     5.40600e-18
318.11046     5.25400e-18
318.12509     4.88100e-18
318.13973     5.04500e-18
318.15437     5.32700e-18
318.16902     4.88100e-18
318.18364     4.16400e-18
318.19831     4.00500e-18
318.21294     4.30400e-18
318.22759     4.62400e-18
318.24223     4.51800e-18
318.25689     4.22500e-18
318.27153     4.19500e-18
318.28618     4.39600e-18
318.30085     4.19900e-18
318.31549     3.79700e-18
318.33016     3.81200e-18
318.34481     4.41200e-18
318.35948     4.67000e-18
318.37412     3.91400e-18
318.38879     3.16600e-18
318.40345     3.33000e-18
318.41812     3.91400e-18
318.43277     3.81900e-18
318.44745     3.30300e-18
318.46211     3.44800e-18
318.47678     4.06300e-18
318.49144     4.13500e-18
318.50613     3.55700e-18
318.52081     3.00500e-18
318.53547     2.59700e-18
318.55016     2.24300e-18
318.56483     2.42800e-18
318.57951     3.12300e-18
318.59418     3.45600e-18
318.60888     2.87800e-18
318.62355     2.31600e-18
318.63824     2.57100e-18
318.65292     2.88900e-18
318.66761     2.44300e-18
318.68229     1.99600e-18
318.69698     2.32000e-18
318.71167     2.66700e-18
318.72637     2.24900e-18
318.74107     1.62600e-18
318.75576     1.88700e-18
318.77046     2.59600e-18
318.78515     2.64700e-18
318.79985     2.13500e-18
318.81455     2.14400e-18
318.82926     2.73600e-18
318.84395     3.19300e-18
318.85867     3.17900e-18
318.87336     2.86700e-18
318.88808     2.57600e-18
318.90277     2.47700e-18
318.91750     2.51400e-18
318.93219     2.24400e-18
318.94691     1.82600e-18
318.96162     1.92200e-18
318.97635     2.56200e-18
318.99107     2.90800e-18
319.00577     2.52600e-18
319.02051     2.33300e-18
319.03522     2.79600e-18
319.04995     3.08900e-18
319.06467     2.52100e-18
319.07940     1.92900e-18
319.09411     2.23700e-18
319.10884     2.58700e-18
319.12357     1.83300e-18
319.13831     8.46100e-19
319.15302     1.00000e-18
319.16777     1.94300e-18
319.18249     2.18000e-18
319.19724     1.60400e-18
319.21198     1.32600e-18
319.22672     1.71500e-18
319.24146     2.15100e-18
319.25619     2.24400e-18
319.27095     2.17300e-18
319.28568     1.84500e-18
319.30043     1.41400e-18
319.31517     1.54000e-18
319.32993     2.26400e-18
319.34466     2.66200e-18
319.35942     2.14400e-18
319.37417     1.59600e-18
319.38893     1.66100e-18
319.40367     2.04100e-18
319.41844     2.21700e-18
319.43321     2.42100e-18
319.44795     2.87100e-18
319.46272     2.91500e-18
319.47748     2.05600e-18
319.49225     1.20200e-18
319.50700     1.16000e-18
319.52178     1.77300e-18
319.53653     2.33500e-18
319.55131     2.27200e-18
319.56607     1.69700e-18
319.58085     1.28000e-18
319.59561     1.38900e-18
319.61039     1.86000e-18
319.62516     2.04700e-18
319.63995     1.79100e-18
319.65473     1.73700e-18
319.66950     2.00100e-18
319.68430     1.94600e-18
319.69906     1.40800e-18
319.71385     1.18300e-18
319.72863     1.62900e-18
319.74343     1.95400e-18
319.75820     1.70700e-18
319.77300     1.55900e-18
319.78778     2.13300e-18
319.80258     2.54600e-18
319.81736     2.05400e-18
319.83217     1.41600e-18
319.84695     1.45600e-18
319.86176     1.74200e-18
319.87654     1.64700e-18
319.89136     1.65400e-18
319.90617     2.21800e-18
319.92096     2.46600e-18
319.93578     1.68400e-18
319.95057     7.79900e-19
319.96538     1.03000e-18
319.98018     1.97000e-18
319.99500     2.32300e-18
320.00980     1.99700e-18
320.02462     2.06500e-18
320.03943     2.56200e-18
320.05425     2.47900e-18
320.06905     1.76300e-18
320.08388     1.51400e-18
320.09869     2.25000e-18
320.11352     2.88400e-18
320.12835     2.35200e-18
320.14317     1.45200e-18
320.15800     1.49900e-18
320.17281     2.27500e-18
320.18765     2.82400e-18
320.20247     2.70100e-18
320.21731     2.60700e-18
320.23212     2.72500e-18
320.24697     2.68100e-18
320.26179     2.52400e-18
320.27664     2.53900e-18
320.29147     2.70800e-18
320.30632     2.43800e-18
320.32114     1.89600e-18
320.33599     2.01600e-18
320.35085     2.64700e-18
320.36568     2.79000e-18
320.38053     2.14000e-18
320.39536     1.79900e-18
320.41023     2.22200e-18
320.42506     2.50800e-18
320.43992     1.92300e-18
320.45477     1.53600e-18
320.46963     1.99500e-18
320.48447     2.57900e-18
320.49934     2.55300e-18
320.51419     2.36500e-18
320.52905     2.76400e-18
320.54390     3.02200e-18
320.55878     2.41300e-18
320.57365     1.77500e-18
320.58850     2.01100e-18
320.60337     2.62700e-18
320.61823     2.70400e-18
320.63311     2.70200e-18
320.64797     3.07200e-18
320.66285     3.27600e-18
320.67771     2.95700e-18
320.69259     2.60500e-18
320.70747     2.95900e-18
320.72235     3.54600e-18
320.73721     3.65600e-18
320.75210     3.38200e-18
320.76698     3.17800e-18
320.78187     3.20400e-18
320.79676     3.46700e-18
320.81164     4.23400e-18
320.82653     5.10000e-18
320.84141     5.33500e-18
320.85630     5.22900e-18
320.87119     5.80800e-18
320.88609     7.25800e-18
320.90097     8.67500e-18
320.91588     9.53000e-18
320.93076     1.06200e-17
320.94567     1.21000e-17
320.96055     1.31500e-17
320.97547     1.35000e-17
320.99036     1.44200e-17
321.00527     1.62500e-17
321.02017     1.73500e-17
321.03508     1.68200e-17
321.04999     1.61400e-17
321.06489     1.66900e-17
321.07981     1.79900e-17
321.09471     1.89500e-17
321.10963     1.91200e-17
321.12454     1.88200e-17
321.13946     1.81600e-17
321.15437     1.74400e-17
321.16929     1.71000e-17
321.18421     1.69900e-17
321.19914     1.67500e-17
321.21405     1.66800e-17
321.22899     1.66700e-17
321.24390     1.66100e-17
321.25883     1.60800e-17
321.27377     1.54000e-17
321.28869     1.51500e-17
321.30363     1.52700e-17
321.31855     1.49500e-17
321.33350     1.41700e-17
321.34842     1.33100e-17
321.36336     1.29400e-17
321.37829     1.33800e-17
321.39324     1.41700e-17
321.40817     1.43600e-17
321.42312     1.34300e-17
321.43806     1.23800e-17
321.45301     1.21700e-17
321.46794     1.23100e-17
321.48290     1.16600e-17
321.49786     1.04900e-17
321.51280     1.02000e-17
321.52776     1.09800e-17
321.54271     1.16700e-17
321.55767     1.11600e-17
321.57261     1.01900e-17
321.58757     9.75300e-18
321.60253     9.63200e-18
321.61749     9.37800e-18
321.63244     9.08200e-18
321.64742     8.85900e-18
321.66237     8.46300e-18
321.67734     7.87600e-18
321.69231     7.60200e-18
321.70728     8.01300e-18
321.72226     8.48000e-18
321.73722     8.31800e-18
321.75221     7.90300e-18
321.76717     7.76700e-18
321.78215     7.65300e-18
321.79712     7.22900e-18
321.81211     6.60200e-18
321.82707     6.35500e-18
321.84206     6.53700e-18
321.85704     6.85700e-18
321.87203     7.02100e-18
321.88700     7.04000e-18
321.90200     6.85400e-18
321.91698     6.46700e-18
321.93197     5.96200e-18
321.94697     5.55600e-18
321.96196     5.42800e-18
321.97696     5.53300e-18
321.99194     5.82300e-18
322.00695     6.05600e-18
322.02194     5.98700e-18
322.03694     5.63800e-18
322.05193     5.17800e-18
322.06695     4.83700e-18
322.08194     4.92800e-18
322.09695     5.42600e-18
322.11195     5.66200e-18
322.12697     5.27500e-18
322.14196     4.69800e-18
322.15698     4.48500e-18
322.17199     4.39800e-18
322.18701     3.95800e-18
322.20203     3.46500e-18
322.21704     3.58700e-18
322.23206     4.11400e-18
322.24707     4.06900e-18
322.26209     3.34000e-18
322.27711     2.90800e-18
322.29214     3.24600e-18
322.30715     3.54600e-18
322.32219     3.18000e-18
322.33721     2.69400e-18
322.35224     2.89500e-18
322.36726     3.45700e-18
322.38231     3.64700e-18
322.39733     3.38900e-18
322.41237     3.01500e-18
322.42742     2.66400e-18
322.44244     2.47600e-18
322.45749     2.68300e-18
322.47251     3.05900e-18
322.48757     2.98500e-18
322.50260     2.45800e-18
322.51765     2.42000e-18
322.53269     3.07000e-18
322.54775     3.28100e-18
322.56278     2.35900e-18
322.57784     1.55800e-18
322.59288     2.02500e-18
322.60794     3.06400e-18
322.62298     3.11000e-18
322.63805     2.35200e-18
322.65312     2.14000e-18
322.66816     2.65300e-18
322.68323     2.91900e-18
322.69828     2.65000e-18
322.71335     2.54400e-18
322.72840     2.62400e-18
322.74348     2.38900e-18
322.75854     1.97400e-18
322.77361     1.99700e-18
322.78868     2.30100e-18
322.80375     2.24600e-18
322.81881     2.09800e-18
322.83389     2.42900e-18
322.84896     2.99200e-18
322.86405     2.75700e-18
322.87913     1.96800e-18
322.89421     1.79800e-18
322.90929     2.35400e-18
322.92436     2.69300e-18
322.93945     2.28000e-18
322.95453     1.70400e-18
322.96963     1.45000e-18
322.98470     1.45500e-18
322.99981     1.67300e-18
323.01488     2.17600e-18
323.02998     2.66900e-18
323.04506     2.69400e-18
323.06017     2.46000e-18
323.07525     2.41000e-18
323.09036     2.30100e-18
323.10545     1.72200e-18
323.12056     1.25200e-18
323.13567     1.65100e-18
323.15076     2.40500e-18
323.16588     2.34800e-18
323.18097     1.73900e-18
323.19608     1.55800e-18
323.21119     1.80000e-18
323.22631     1.78200e-18
323.24140     1.52200e-18
323.25652     1.71100e-18
323.27163     2.23600e-18
323.28676     2.33000e-18
323.30186     1.97600e-18
323.31699     1.97800e-18
323.33210     2.40300e-18
323.34723     2.45600e-18
323.36236     1.96900e-18
323.37748     1.67300e-18
323.39261     1.88100e-18
323.40772     2.12700e-18
323.42287     2.05300e-18
323.43799     1.84500e-18
323.45312     1.84400e-18
323.46824     2.12800e-18
323.48339     2.55700e-18
323.49851     2.81200e-18
323.51366     2.57700e-18
323.52879     2.07100e-18
323.54394     1.93600e-18
323.55907     2.30800e-18
323.57422     2.45600e-18
323.58938     1.91800e-18
323.60451     1.59000e-18
323.61966     2.06700e-18
323.63481     2.78500e-18
323.64996     2.82100e-18
323.66510     2.21500e-18
323.68026     1.70300e-18
323.69541     1.49500e-18
323.71057     1.53000e-18
323.72572     1.80800e-18
323.74089     2.36500e-18
323.75604     2.67400e-18
323.77120     2.39300e-18
323.78636     2.11700e-18
323.80153     2.62500e-18
323.81671     3.37100e-18
323.83186     3.15900e-18
323.84704     2.06500e-18
323.86220     1.34800e-18
323.87738     1.47300e-18
323.89254     1.80200e-18
323.90773     1.94300e-18
323.92289     2.04800e-18
323.93807     2.26200e-18
323.95325     2.36100e-18
323.96843     2.17600e-18
323.98360     2.01600e-18
323.99880     2.05800e-18
324.01397     2.04800e-18
324.02916     1.83300e-18
324.04435     1.80400e-18
324.05954     2.20700e-18
324.07473     2.74300e-18
324.08991     2.84700e-18
324.10511     2.60500e-18
324.12030     2.62700e-18
324.13550     3.14100e-18
324.15068     3.55900e-18
324.16590     3.38000e-18
324.18109     2.92900e-18
324.19629     2.84200e-18
324.21149     3.20000e-18
324.22670     3.44200e-18
324.24189     3.30500e-18
324.25711     3.01700e-18
324.27231     2.92800e-18
324.28753     2.95000e-18
324.30275     3.09000e-18
324.31795     3.39700e-18
324.33317     3.61700e-18
324.34838     3.51800e-18
324.36360     3.11800e-18
324.37881     2.93300e-18
324.39404     3.17600e-18
324.40925     3.54000e-18
324.42449     3.63900e-18
324.43970     3.51400e-18
324.45493     3.39200e-18
324.47014     3.40900e-18
324.48538     3.56400e-18
324.50060     3.71700e-18
324.51584     3.74400e-18
324.53109     3.67200e-18
324.54631     3.82900e-18
324.56155     4.23600e-18
324.57677     4.55900e-18
324.59203     4.63000e-18
324.60725     4.81400e-18
324.62250     5.12200e-18
324.63774     5.02100e-18
324.65299     4.42800e-18
324.66822     4.14000e-18
324.68347     4.76600e-18
324.69872     5.71300e-18
324.71397     6.07800e-18
324.72921     6.06700e-18
324.74448     6.18200e-18
324.75974     6.27700e-18
324.77498     6.12600e-18
324.79025     6.24300e-18
324.80550     7.06800e-18
324.82077     7.94600e-18
324.83601     8.01900e-18
324.85129     7.79500e-18
324.86654     8.19000e-18
324.88181     8.78000e-18
324.89707     8.67700e-18
324.91235     8.28700e-18
324.92761     8.55700e-18
324.94289     9.44600e-18
324.95815     1.00300e-17
324.97344     1.01600e-17
324.98872     1.04900e-17
325.00398     1.11100e-17
325.01928     1.15700e-17
325.03454     1.19400e-17
325.04983     1.23100e-17
325.06511     1.22600e-17
325.08040     1.17400e-17
325.09567     1.15600e-17
325.11096     1.22600e-17
325.12625     1.32600e-17
325.14154     1.36200e-17
325.15682     1.35800e-17
325.17213     1.38900e-17
325.18741     1.44400e-17
325.20271     1.46500e-17
325.21802     1.48300e-17
325.23331     1.53200e-17
325.24862     1.57700e-17
325.26390     1.56900e-17
325.27922     1.52600e-17
325.29451     1.49400e-17
325.30983     1.47900e-17
325.32513     1.46400e-17
325.34045     1.45800e-17
325.35574     1.47900e-17
325.37106     1.51500e-17
325.38637     1.53500e-17
325.40169     1.53300e-17
325.41699     1.49200e-17
325.43232     1.42600e-17
325.44763     1.40800e-17
325.46296     1.46800e-17
325.47828     1.51100e-17
325.49360     1.44200e-17
325.50893     1.33000e-17
325.52425     1.28700e-17
325.53959     1.28200e-17
325.55490     1.24200e-17
325.57024     1.20100e-17
325.58556     1.25800e-17
325.60091     1.34300e-17
325.61623     1.28900e-17
325.63157     1.14000e-17
325.64690     1.07000e-17
325.66225     1.13000e-17
325.67758     1.17300e-17
325.69292     1.10700e-17
325.70829     1.04600e-17
325.72362     1.06100e-17
325.73897     1.08700e-17
325.75431     1.06700e-17
325.76967     1.04300e-17
325.78500     1.03800e-17
325.80036     1.00600e-17
325.81571     9.45700e-18
325.83107     9.16500e-18
325.84641     9.42900e-18
325.86179     9.52700e-18
325.87713     8.87500e-18
325.89250     8.16800e-18
325.90785     8.09000e-18
325.92323     8.42000e-18
325.93860     8.56600e-18
325.95395     8.29200e-18
325.96934     7.82600e-18
325.98469     7.21800e-18
326.00007     6.66100e-18
326.01543     6.46000e-18
326.03082     6.68100e-18
326.04618     6.94300e-18
326.06156     6.85600e-18
326.07694     6.54500e-18
326.09232     6.46600e-18
326.10769     6.62600e-18
326.12308     6.52100e-18
326.13846     6.03600e-18
326.15385     5.69400e-18
326.16924     5.96100e-18
326.18463     6.41700e-18
326.20002     6.21300e-18
326.21540     5.62700e-18
326.23080     5.53000e-18
326.24619     5.97400e-18
326.26159     5.91400e-18
326.27697     5.06700e-18
326.29239     4.30500e-18
326.30777     4.27100e-18
326.32318     4.54600e-18
326.33858     4.47800e-18
326.35399     4.25100e-18
326.36938     4.18300e-18
326.38480     4.15200e-18
326.40020     3.94100e-18
326.41562     3.84700e-18
326.43104     4.05200e-18
326.44645     4.05600e-18
326.46187     3.70700e-18
326.47727     3.40100e-18
326.49269     3.53000e-18
326.50811     3.66400e-18
326.52353     3.36800e-18
326.53894     2.98000e-18
326.55438     2.97900e-18
326.56979     3.26300e-18
326.58522     3.46500e-18
326.60064     3.58000e-18
326.61608     3.68400e-18
326.63150     3.58100e-18
326.64694     3.17800e-18
326.66239     2.81300e-18
326.67781     2.77800e-18
326.69325     2.89600e-18
326.70867     2.72800e-18
326.72413     2.31000e-18
326.73955     2.10300e-18
326.75500     2.39800e-18
326.77044     2.75800e-18
326.78589     2.70200e-18
326.80133     2.24800e-18
326.81678     1.87400e-18
326.83223     2.07800e-18
326.84768     2.54400e-18
326.86312     2.53500e-18
326.87859     2.10400e-18
326.89405     1.89100e-18
326.90950     2.00700e-18
326.92496     2.01300e-18
326.94042     1.77200e-18
326.95588     1.76600e-18
326.97133     2.12500e-18
326.98681     2.28300e-18
327.00226     1.91100e-18
327.01774     1.49600e-18
327.03319     1.46800e-18
327.04868     1.57700e-18
327.06414     1.53600e-18
327.07961     1.59300e-18
327.09508     1.98000e-18
327.11057     2.31300e-18
327.12605     2.19700e-18
327.14151     1.81800e-18
327.15701     1.58200e-18
327.17248     1.61000e-18
327.18797     1.69700e-18
327.20345     1.78900e-18
327.21894     1.78500e-18
327.23441     1.54500e-18
327.24991     1.25500e-18
327.26540     1.24900e-18
327.28090     1.57800e-18
327.29637     1.89400e-18
327.31189     1.79800e-18
327.32737     1.51300e-18
327.34287     1.43700e-18
327.35838     1.70300e-18
327.37387     2.02700e-18
327.38938     1.95100e-18
327.40487     1.56900e-18
327.42039     1.28600e-18
327.43589     1.46900e-18
327.45140     1.85000e-18
327.46689     1.77000e-18
327.48242     1.38600e-18
327.49792     1.31000e-18
327.51344     1.65700e-18
327.52895     1.75600e-18
327.54448     1.22800e-18
327.55998     6.16600e-19
327.57552     6.51500e-19
327.59102     1.34500e-18
327.60655     2.10400e-18
327.62208     2.34700e-18
327.63760     1.98200e-18
327.65314     1.45500e-18
327.66865     1.42600e-18
327.68419     1.89100e-18
327.69972     2.04800e-18
327.71526     1.54100e-18
327.73078     1.11500e-18
327.74633     1.40000e-18
327.76185     1.76500e-18
327.77740     1.45500e-18
327.79293     1.06100e-18
327.80848     1.54200e-18
327.82401     2.39500e-18
327.83956     2.34800e-18
327.85513     1.56500e-18
327.87066     1.25900e-18
327.88621     1.58100e-18
327.90176     1.59400e-18
327.91732     1.19800e-18
327.93286     1.30400e-18
327.94842     1.97600e-18
327.96397     2.21700e-18
327.97954     1.76900e-18
327.99508     1.58900e-18
328.01066     1.88700e-18
328.02621     1.80500e-18
328.04178     1.22400e-18
328.05733     1.13700e-18
328.07291     1.77900e-18
328.08849     2.17000e-18
328.10404     1.76600e-18
328.11963     1.38700e-18
328.13519     1.74100e-18
328.15077     2.28400e-18
328.16633     2.10400e-18
328.18193     1.54900e-18
328.19749     1.52400e-18
328.21308     2.04900e-18
328.22866     2.43900e-18
328.24425     2.27400e-18
328.25982     1.85700e-18
328.27541     1.67700e-18
328.29099     1.78400e-18
328.30659     1.86900e-18
328.32218     1.82200e-18
328.33777     1.84200e-18
328.35337     2.18600e-18
328.36895     2.71600e-18
328.38456     3.05300e-18
328.40015     3.05200e-18
328.41576     2.96800e-18
328.43134     3.03300e-18
328.44696     3.19200e-18
328.46255     3.23600e-18
328.47816     3.09700e-18
328.49376     2.83700e-18
328.50938     2.75600e-18
328.52498     3.03000e-18
328.54059     3.44200e-18
328.55622     3.62400e-18
328.57182     3.43000e-18
328.58745     3.36200e-18
328.60305     3.80900e-18
328.61868     4.31500e-18
328.63429     4.23500e-18
328.64992     3.92500e-18
328.66554     3.99400e-18
328.68117     4.49500e-18
328.69678     4.89500e-18
328.71241     5.05600e-18
328.72804     5.14700e-18
328.74368     5.16000e-18
328.75929     5.03600e-18
328.77495     4.99900e-18
328.79057     5.42000e-18
328.80621     6.18000e-18
328.82185     6.65600e-18
328.83749     6.55800e-18
328.85314     6.31900e-18
328.86876     6.29700e-18
328.88443     6.57200e-18
328.90006     7.09600e-18
328.91571     7.64000e-18
328.93135     7.90600e-18
328.94701     7.86200e-18
328.96265     7.81000e-18
328.97831     7.92800e-18
328.99396     8.27400e-18
329.00962     8.97800e-18
329.02526     9.76900e-18
329.04094     9.92400e-18
329.05661     9.36000e-18
329.07225     9.27800e-18
329.08792     1.03500e-17
329.10358     1.14300e-17
329.11926     1.10700e-17
329.13491     1.00600e-17
329.15060     1.01800e-17
329.16625     1.13200e-17
329.18193     1.18800e-17
329.19759     1.15100e-17
329.21328     1.17200e-17
329.22895     1.27200e-17
329.24463     1.31000e-17
329.26031     1.24900e-17
329.27599     1.24500e-17
329.29168     1.34800e-17
329.30735     1.41200e-17
329.32306     1.33100e-17
329.33873     1.25200e-17
329.35442     1.30400e-17
329.37011     1.40600e-17
329.38581     1.42400e-17
329.40149     1.38900e-17
329.41719     1.39800e-17
329.43288     1.42800e-17
329.44859     1.42200e-17
329.46427     1.40700e-17
329.47999     1.43600e-17
329.49568     1.46400e-17
329.51139     1.43200e-17
329.52710     1.37500e-17
329.54280     1.36400e-17
329.55852     1.38700e-17
329.57421     1.38900e-17
329.58994     1.36100e-17
329.60564     1.33900e-17
329.62136     1.33600e-17
329.63706     1.34100e-17
329.65279     1.33800e-17
329.66850     1.30300e-17
329.68422     1.25000e-17
329.69994     1.21900e-17
329.71567     1.23600e-17
329.73138     1.26200e-17
329.74711     1.25800e-17
329.76284     1.23200e-17
329.77857     1.21100e-17
329.79431     1.20800e-17
329.81004     1.19400e-17
329.82578     1.17300e-17
329.84150     1.15900e-17
329.85724     1.13800e-17
329.87298     1.10100e-17
329.88872     1.07600e-17
329.90445     1.09700e-17
329.92021     1.14000e-17
329.93594     1.13000e-17
329.95169     1.05400e-17
329.96743     9.87300e-18
329.98319     9.92500e-18
329.99893     1.04300e-17
330.01468     1.04900e-17
330.03045     9.77200e-18
330.04619     8.94900e-18
330.06196     8.67600e-18
330.07771     8.93600e-18
330.09348     9.18400e-18
330.10922     9.09700e-18
330.12499     8.89300e-18
330.14075     8.70000e-18
330.15652     8.45800e-18
330.17227     8.14400e-18
330.18806     7.92300e-18
330.20382     7.99300e-18
330.21959     8.26000e-18
330.23535     8.47300e-18
330.25114     8.47000e-18
330.26693     8.11300e-18
330.28269     7.57200e-18
330.29848     7.31400e-18
330.31425     7.54600e-18
330.33004     7.76400e-18
330.34581     7.48300e-18
330.36161     7.01400e-18
330.37738     6.86300e-18
330.39318     6.93100e-18
330.40896     6.78000e-18
330.42476     6.45000e-18
330.44054     6.35600e-18
330.45634     6.48000e-18
330.47213     6.49500e-18
330.48793     6.35800e-18
330.50374     6.31400e-18
330.51953     6.36900e-18
330.53534     6.19900e-18
330.55113     5.84600e-18
330.56694     5.66000e-18
330.58274     5.69900e-18
330.59856     5.56400e-18
330.61435     5.12800e-18
330.63018     4.76800e-18
330.64598     4.72600e-18
330.66180     4.92200e-18
330.67760     5.04400e-18
330.69343     4.97300e-18
330.70923     4.84400e-18
330.72506     4.80300e-18
330.74090     4.85000e-18
330.75671     4.74400e-18
330.77254     4.27100e-18
330.78835     3.75100e-18
330.80419     3.61400e-18
330.82001     3.74500e-18
330.83584     3.76800e-18
330.85167     3.67100e-18
330.86751     3.77000e-18
330.88333     4.01700e-18
330.89917     4.00000e-18
330.91501     3.71300e-18
330.93085     3.54000e-18
330.94668     3.63900e-18
330.96254     3.64100e-18
330.97837     3.44100e-18
330.99422     3.34000e-18
331.01007     3.44800e-18
331.02592     3.51300e-18
331.04177     3.45700e-18
331.05761     3.51700e-18
331.07348     3.66400e-18
331.08932     3.61000e-18
331.10518     3.32300e-18
331.12103     3.18800e-18
331.13690     3.26700e-18
331.15275     3.30400e-18
331.16862     3.27200e-18
331.18448     3.31400e-18
331.20035     3.29200e-18
331.21620     2.93700e-18
331.23209     2.43300e-18
331.24796     2.25600e-18
331.26382     2.40300e-18
331.27970     2.43800e-18
331.29557     2.22300e-18
331.31145     2.06700e-18
331.32731     2.25300e-18
331.34320     2.60600e-18
331.35907     2.80800e-18
331.37496     2.82100e-18
331.39083     2.80000e-18
331.40673     2.79900e-18
331.42260     2.62600e-18
331.43850     2.23300e-18
331.45438     1.92100e-18
331.47028     2.01800e-18
331.48618     2.43400e-18
331.50206     2.70200e-18
331.51797     2.54600e-18
331.53386     2.32100e-18
331.54976     2.34600e-18
331.56566     2.43700e-18
331.58157     2.24200e-18
331.59745     1.87100e-18
331.61337     1.77600e-18
331.62927     1.95200e-18
331.64518     2.05200e-18
331.66108     1.96500e-18
331.67700     1.91300e-18
331.69290     2.03400e-18
331.70882     2.19400e-18
331.72474     2.24000e-18
331.74066     2.18400e-18
331.75658     2.04200e-18
331.77249     1.87300e-18
331.78843     1.79200e-18
331.80433     1.82100e-18
331.82027     1.84100e-18
331.83618     1.80100e-18
331.85212     1.79200e-18
331.86804     1.92200e-18
331.88397     2.03600e-18
331.89990     2.00600e-18
331.91584     1.87400e-18
331.93176     1.76500e-18
331.94771     1.70300e-18
331.96366     1.65700e-18
331.97959     1.58400e-18
331.99554     1.51100e-18
332.01147     1.51800e-18
332.02743     1.56800e-18
332.04336     1.52800e-18
332.05931     1.37100e-18
332.07526     1.30900e-18
332.09121     1.56100e-18
332.10715     1.80300e-18
332.12312     1.63100e-18
332.13906     1.26100e-18
332.15502     1.13200e-18
332.17097     1.16900e-18
332.18695     1.01600e-18
332.20289     7.63900e-19
332.21886     8.48700e-19
332.23484     1.13500e-18
332.25079     9.58500e-19
332.26677     8.27000e-19
332.28272     1.00300e-18
332.29871     1.26200e-18
332.31467     1.19600e-18
332.33065     9.09000e-19
332.34662     9.58000e-19
332.36260     1.41400e-18
332.37856     1.65200e-18
332.39455     1.28300e-18
332.41053     8.12000e-19
332.42652     7.72000e-19
332.44249     9.75600e-19
332.45849     9.75800e-19
332.47449     8.02900e-19
332.49046     7.79300e-19
332.50646     9.42100e-19
332.52244     1.00600e-18
332.53844     1.01700e-18
332.55442     1.17000e-18
332.57044     1.31200e-18
332.58642     1.19200e-18
332.60243     9.45500e-19
332.61843     1.00900e-18
332.63444     1.30200e-18
332.65042     1.34300e-18
332.66644     1.09000e-18
332.68244     1.04200e-18
332.69846     1.38700e-18
332.71447     1.65600e-18
332.73048     1.49600e-18
332.74650     1.26500e-18
332.76250     1.35900e-18
332.77852     1.55300e-18
332.79454     1.48400e-18
332.81057     1.30200e-18
332.82657     1.43000e-18
332.84261     1.75400e-18
332.85862     1.80500e-18
332.87465     1.56200e-18
332.89067     1.53500e-18
332.90671     1.78700e-18
332.92273     1.85000e-18
332.93877     1.66200e-18
332.95482     1.67900e-18
332.97084     2.12700e-18
332.98688     2.52700e-18
333.00291     2.45100e-18
333.01896     2.20700e-18
333.03499     2.25800e-18
333.05104     2.44300e-18
333.06708     2.47700e-18
333.08313     2.57600e-18
333.09916     2.97600e-18
333.11522     3.39400e-18
333.13127     3.41600e-18
333.14733     3.24800e-18
333.16336     3.38800e-18
333.17944     3.79000e-18
333.19548     4.00800e-18
333.21154     3.98600e-18
333.22761     4.21700e-18
333.24367     4.80800e-18
333.25974     5.32600e-18
333.27579     5.55200e-18
333.29187     5.78000e-18
333.30792     6.21500e-18
333.32400     6.70800e-18
333.34006     7.03200e-18
333.35615     7.22500e-18
333.37220     7.48400e-18
333.38829     7.83700e-18
333.40436     8.31800e-18
333.42044     8.93400e-18
333.43651     9.54100e-18
333.45260     9.88700e-18
333.46870     1.01300e-17
333.48477     1.06600e-17
333.50086     1.15200e-17
333.51695     1.21500e-17
333.53304     1.21300e-17
333.54912     1.19800e-17
333.56522     1.23800e-17
333.58131     1.32600e-17
333.59741     1.38800e-17
333.61349     1.39500e-17
333.62961     1.39500e-17
333.64569     1.44600e-17
333.66180     1.52100e-17
333.67790     1.55400e-17
333.69401     1.53100e-17
333.71013     1.50800e-17
333.72622     1.52800e-17
333.74235     1.55800e-17
333.75844     1.55700e-17
333.77456     1.53100e-17
333.79067     1.51900e-17
333.80679     1.54300e-17
333.82290     1.55500e-17
333.83902     1.52100e-17
333.85514     1.47300e-17
333.87127     1.45900e-17
333.88737     1.47200e-17
333.90352     1.45700e-17
333.91963     1.41100e-17
333.93576     1.38600e-17
333.95190     1.39900e-17
333.96803     1.39600e-17
333.98417     1.36300e-17
334.00029     1.34100e-17
334.01644     1.34800e-17
334.03256     1.34100e-17
334.04871     1.30500e-17
334.06484     1.28800e-17
334.08100     1.30400e-17
334.09712     1.28800e-17
334.11328     1.21900e-17
334.12942     1.17400e-17
334.14557     1.20700e-17
334.16171     1.24600e-17
334.17787     1.21700e-17
334.19404     1.16700e-17
334.21018     1.16300e-17
334.22634     1.17500e-17
334.24250     1.13700e-17
334.25866     1.08200e-17
334.27481     1.07500e-17
334.29098     1.09400e-17
334.30714     1.06900e-17
334.32331     1.01200e-17
334.33946     9.96400e-18
334.35565     1.01400e-17
334.37180     1.01000e-17
334.38798     9.84400e-18
334.40414     9.80900e-18
334.42033     9.86600e-18
334.43649     9.55300e-18
334.45268     9.04300e-18
334.46888     9.01100e-18
334.48504     9.39400e-18
334.50123     9.47000e-18
334.51740     9.02900e-18
334.53361     8.64200e-18
334.54978     8.56700e-18
334.56597     8.40900e-18
334.58216     8.01000e-18
334.59836     7.79600e-18
334.61454     7.92300e-18
334.63074     8.01100e-18
334.64693     7.72700e-18
334.66314     7.33000e-18
334.67932     7.20000e-18
334.69554     7.27100e-18
334.71175     7.25800e-18
334.72794     7.11700e-18
334.74416     6.99800e-18
334.76036     6.92100e-18
334.77658     6.84800e-18
334.79277     6.78600e-18
334.80900     6.78500e-18
334.82520     6.78300e-18
334.84143     6.65400e-18
334.85763     6.40600e-18
334.87386     6.25200e-18
334.89007     6.28500e-18
334.90630     6.30400e-18
334.92252     6.11800e-18
334.93875     5.94500e-18
334.95498     6.02900e-18
334.97121     6.17800e-18
334.98745     5.88000e-18
335.00366     5.27100e-18
335.01990     5.03900e-18
335.03613     5.39300e-18
335.05238     5.77700e-18
335.06860     5.59400e-18
335.08484     5.13500e-18
335.10108     4.97100e-18
335.11733     5.04700e-18
335.13356     4.99600e-18
335.14982     4.79700e-18
335.16605     4.69800e-18
335.18231     4.74400e-18
335.19858     4.73800e-18
335.21482     4.64600e-18
335.23108     4.58000e-18
335.24732     4.52300e-18
335.26359     4.36600e-18
335.27983     4.22400e-18
335.29610     4.21400e-18
335.31236     4.24200e-18
335.32863     4.13200e-18
335.34488     3.93700e-18
335.36115     3.85400e-18
335.37741     3.95300e-18
335.39369     4.02700e-18
335.40995     3.91800e-18
335.42624     3.74800e-18
335.44252     3.71400e-18
335.45878     3.84200e-18
335.47506     3.86000e-18
335.49134     3.65000e-18
335.50762     3.41600e-18
335.52389     3.40200e-18
335.54019     3.48000e-18
335.55646     3.35700e-18
335.57276     3.08300e-18
335.58903     3.02300e-18
335.60534     3.23800e-18
335.62161     3.40400e-18
335.63791     3.32500e-18
335.65420     3.11800e-18
335.67051     2.88500e-18
335.68679     2.67800e-18
335.70310     2.69800e-18
335.71941     3.04400e-18
335.73570     3.33400e-18
335.75201     3.13500e-18
335.76831     2.74900e-18
335.78463     2.79000e-18
335.80092     3.09200e-18
335.81724     2.94600e-18
335.83355     2.42500e-18
335.84987     2.32000e-18
335.86617     2.79400e-18
335.88250     3.02700e-18
335.89881     2.58400e-18
335.91513     2.16800e-18
335.93144     2.34100e-18
335.94778     2.67100e-18
335.96411     2.58200e-18
335.98042     2.33200e-18
335.99677     2.35600e-18
336.01308     2.50500e-18
336.02942     2.45200e-18
336.04574     2.31700e-18
336.06209     2.36800e-18
336.07841     2.45500e-18
336.09476     2.41100e-18
336.11109     2.39400e-18
336.12744     2.54300e-18
336.14376     2.66100e-18
336.16011     2.52400e-18
336.17646     2.32400e-18
336.19281     2.28300e-18
336.20917     2.34500e-18
336.22551     2.38500e-18
336.24187     2.47000e-18
336.25821     2.61900e-18
336.27457     2.60100e-18
336.29092     2.29400e-18
336.30729     1.93500e-18
336.32363     1.88800e-18
336.34001     2.13700e-18
336.35636     2.38500e-18
336.37273     2.35900e-18
336.38909     2.11800e-18
336.40547     1.97000e-18
336.42182     2.12600e-18
336.43820     2.38100e-18
336.45459     2.27900e-18
336.47095     1.85200e-18
336.48733     1.57900e-18
336.50370     1.75300e-18
336.52009     2.02300e-18
336.53645     2.01500e-18
336.55284     1.91600e-18
336.56922     2.07800e-18
336.58561     2.30400e-18
336.60199     2.15900e-18
336.61839     1.79600e-18
336.63477     1.72900e-18
336.65117     1.96200e-18
336.66754     2.06000e-18
336.68396     1.89400e-18
336.70034     1.80600e-18
336.71674     1.94500e-18
336.73316     2.07500e-18
336.74955     2.00400e-18
336.76596     1.89800e-18
336.78234     1.88500e-18
336.79877     1.85900e-18
336.81516     1.77300e-18
336.83158     1.75600e-18
336.84798     1.82200e-18
336.86440     1.81100e-18
336.88080     1.71600e-18
336.89722     1.73000e-18
336.91364     1.86100e-18
336.93006     1.84600e-18
336.94647     1.65000e-18
336.96291     1.53700e-18
336.97934     1.59700e-18
336.99575     1.61500e-18
337.01218     1.47400e-18
337.02860     1.39700e-18
337.04504     1.59800e-18
337.06146     1.80900e-18
337.07791     1.67000e-18
337.09433     1.33700e-18
337.11077     1.24600e-18
337.12719     1.50800e-18
337.14365     1.80900e-18
337.16008     1.87800e-18
337.17653     1.78900e-18
337.19297     1.75200e-18
337.20942     1.81700e-18
337.22588     1.88400e-18
337.24231     1.92600e-18
337.25878     1.93800e-18
337.27521     1.91200e-18
337.29168     1.87200e-18
337.30813     1.84800e-18
337.32459     1.79200e-18
337.34103     1.66300e-18
337.35750     1.57600e-18
337.37396     1.64800e-18
337.39043     1.78300e-18
337.40688     1.75200e-18
337.42337     1.55600e-18
337.43982     1.43700e-18
337.45630     1.48800e-18
337.47277     1.53500e-18
337.48924     1.47300e-18
337.50573     1.38700e-18
337.52219     1.38100e-18
337.53868     1.34400e-18
337.55515     1.26300e-18
337.57164     1.31500e-18
337.58811     1.52700e-18
337.60461     1.58400e-18
337.62108     1.36600e-18
337.63757     1.19100e-18
337.65406     1.32600e-18
337.67055     1.60100e-18
337.68703     1.67200e-18
337.70354     1.55500e-18
337.72005     1.50200e-18
337.73653     1.50500e-18
337.75303     1.41900e-18
337.76953     1.35600e-18
337.78604     1.46200e-18
337.80253     1.60400e-18
337.81905     1.59100e-18
337.83554     1.58000e-18
337.85206     1.77300e-18
337.86855     1.92200e-18
337.88508     1.70100e-18
337.90158     1.37500e-18
337.91810     1.42500e-18
337.93462     1.74000e-18
337.95114     1.78400e-18
337.96765     1.56800e-18
337.98418     1.60100e-18
338.00072     1.96200e-18
338.01723     2.06500e-18
338.03376     1.63100e-18
338.05028     1.24500e-18
338.06682     1.39300e-18
338.08334     1.77700e-18
338.09988     1.85500e-18
338.11641     1.64200e-18
338.13295     1.56700e-18
338.14947     1.68100e-18
338.16603     1.71900e-18
338.18256     1.63600e-18
338.19911     1.65500e-18
338.21563     1.85300e-18
338.23220     1.99700e-18
338.24875     1.98900e-18
338.26529     2.03300e-18
338.28186     2.14000e-18
338.29839     2.07800e-18
338.31495     1.88700e-18
338.33149     1.93900e-18
338.34807     2.19000e-18
338.36461     2.09900e-18
338.38118     1.82100e-18
338.39774     2.66500e-18
338.41431     5.70000e-18
338.43086     1.02400e-17
338.44743     1.41700e-17
338.46400     1.67900e-17
338.48057     1.98900e-17
338.49715     2.42800e-17
338.51372     2.74900e-17
338.53030     2.71300e-17
338.54686     2.55200e-17
338.56345     2.51200e-17
338.58003     2.50800e-17
338.59661     2.38300e-17
338.61318     2.23600e-17
338.62979     2.20900e-17
338.64636     2.24400e-17
338.66295     2.18200e-17
338.67953     2.06800e-17
338.69614     2.02600e-17
338.71271     2.01500e-17
338.72931     1.93400e-17
338.74593     1.82800e-17
338.76251     1.80000e-17
338.77912     1.80300e-17
338.79571     1.73300e-17
338.81232     1.62900e-17
338.82891     1.59900e-17
338.84553     1.61200e-17
338.86213     1.57500e-17
338.87875     1.51900e-17
338.89534     1.50700e-17
338.91196     1.49100e-17
338.92857     1.41700e-17
338.94519     1.35800e-17
338.96179     1.36600e-17
338.97843     1.35700e-17
338.99506     1.26400e-17
339.01167     1.20000e-17
339.02831     1.23800e-17
339.04492     1.25400e-17
339.06155     1.14600e-17
339.07817     1.05100e-17
339.09481     1.09700e-17
339.11143     1.16400e-17
339.12807     1.07700e-17
339.14470     9.49700e-18
339.16135     9.53700e-18
339.17797     1.00800e-17
339.19462     9.30500e-18
339.21125     8.06400e-18
339.22790     8.26500e-18
339.24453     9.27200e-18
339.26120     8.79000e-18
339.27785     7.23500e-18
339.29449     7.05900e-18
339.31115     8.33200e-18
339.32780     8.54500e-18
339.34446     7.00400e-18
339.36110     6.07400e-18
339.37778     6.87000e-18
339.39442     7.63900e-18
339.41109     6.85500e-18
339.42774     5.84300e-18
339.44442     6.06900e-18
339.46107     6.76100e-18
339.47774     6.44200e-18
339.49441     5.49700e-18
339.51109     5.22900e-18
339.52777     5.67500e-18
339.54443     5.91200e-18
339.56112     5.59800e-18
339.57778     5.19500e-18
339.59447     5.01100e-18
339.61115     4.93800e-18
339.62784     4.95000e-18
339.64451     4.95700e-18
339.66120     4.73200e-18
339.67788     4.35800e-18
339.69458     4.23800e-18
339.71125     4.43200e-18
339.72796     4.40000e-18
339.74464     3.93800e-18
339.76135     3.64000e-18
339.77805     3.96200e-18
339.79475     4.38200e-18
339.81145     4.11400e-18
339.82814     3.39300e-18
339.84486     3.05200e-18
339.86155     3.38000e-18
339.87827     3.79100e-18
339.89496     3.75600e-18
339.91169     3.43300e-18
339.92839     3.18700e-18
339.94511     3.11600e-18
339.96182     3.08200e-18
339.97854     3.07100e-18
339.99525     3.05300e-18
340.01197     2.93600e-18
340.02871     2.75000e-18
340.04542     2.69600e-18
340.06215     2.84200e-18
340.07888     2.97100e-18
340.09561     2.87400e-18
340.11233     2.67800e-18
340.12907     2.62500e-18
340.14580     2.68500e-18
340.16254     2.67400e-18
340.17926     2.56400e-18
340.19602     2.49300e-18
340.21274     2.48500e-18
340.22949     2.44800e-18
340.24623     2.38700e-18
340.26298     2.34000e-18
340.27974     2.28000e-18
340.29647     2.24300e-18
340.31324     2.33200e-18
340.32997     2.51000e-18
340.34673     2.51600e-18
340.36348     2.30400e-18
340.38025     2.16700e-18
340.39699     2.29600e-18
340.41376     2.42800e-18
340.43052     2.22600e-18
340.44729     1.89200e-18
340.46403     1.82600e-18
340.48082     1.96800e-18
340.49757     1.95500e-18
340.51435     1.80000e-18
340.53111     1.80700e-18
340.54790     1.97400e-18
340.56468     1.98800e-18
340.58144     1.81800e-18
340.59824     1.77800e-18
340.61500     1.92200e-18
340.63179     1.96000e-18
340.64856     1.81000e-18
340.66536     1.76000e-18
340.68213     1.94100e-18
340.69893     2.07500e-18
340.71571     1.96200e-18
340.73251     1.80300e-18
340.74929     1.79500e-18
340.76609     1.83000e-18
340.78288     1.80600e-18
340.79969     1.89600e-18
340.81649     2.15100e-18
340.83329     2.25600e-18
340.85010     1.99400e-18
340.86689     1.65700e-18
340.88370     1.63400e-18
340.90051     1.80700e-18
340.91732     1.87400e-18
340.93412     1.84500e-18
340.95095     1.91500e-18
340.96775     1.97500e-18
340.98457     1.80400e-18
341.00137     1.49100e-18
341.01821     1.40300e-18
341.03502     1.57700e-18
341.05185     1.69300e-18
341.06869     1.63800e-18
341.08550     1.59800e-18
341.10234     1.65600e-18
341.11915     1.63000e-18
341.13600     1.46400e-18
341.15282     1.39700e-18
341.16966     1.55000e-18
341.18649     1.69600e-18
341.20334     1.66000e-18
341.22016     1.57100e-18
341.23701     1.60700e-18
341.25385     1.72500e-18
341.27070     1.77800e-18
341.28753     1.72100e-18
341.30440     1.63700e-18
341.32125     1.60600e-18
341.33809     1.60300e-18
341.35495     1.59500e-18
341.37180     1.55000e-18
341.38866     1.52400e-18
341.40550     1.60600e-18
341.42238     1.74100e-18
341.43923     1.74400e-18
341.45610     1.60100e-18
341.47296     1.53400e-18
341.48983     1.65400e-18
341.50668     1.77300e-18
341.52356     1.72800e-18
341.54042     1.64200e-18
341.55730     1.67300e-18
341.57416     1.73000e-18
341.59106     1.67000e-18
341.60794     1.64100e-18
341.62481     1.79000e-18
341.64169     1.94200e-18
341.65857     1.86100e-18
341.67547     1.68900e-18
341.69234     1.72800e-18
341.70924     1.90000e-18
341.72612     1.91300e-18
341.74301     1.79500e-18
341.75989     1.80900e-18
341.77680     1.95500e-18
341.79368     1.99600e-18
341.81059     1.86200e-18
341.82748     1.79500e-18
341.84439     1.92000e-18
341.86130     2.07600e-18
341.87819     2.09700e-18
341.89512     1.99700e-18
341.91201     1.89300e-18
341.92893     1.83400e-18
341.94583     1.83700e-18
341.96275     1.88400e-18
341.97965     1.92900e-18
341.99657     1.93600e-18
342.01349     1.90600e-18
342.03041     1.86200e-18
342.04732     1.86200e-18
342.06426     1.99600e-18
342.08117     2.21500e-18
342.09810     2.30300e-18
342.11504     2.13600e-18
342.13196     1.90300e-18
342.14890     1.88000e-18
342.16582     2.05100e-18
342.18277     2.14500e-18
342.19969     2.11300e-18
342.21664     2.12400e-18
342.23356     2.22700e-18
342.25052     2.26600e-18
342.26745     2.26400e-18
342.28440     2.40100e-18
342.30134     2.60700e-18
342.31830     2.59000e-18
342.33523     2.36100e-18
342.35219     2.27700e-18
342.36916     2.45800e-18
342.38610     2.61200e-18
342.40307     2.51400e-18
342.42002     2.41800e-18
342.43699     2.59000e-18
342.45393     2.85900e-18
342.47090     2.92200e-18
342.48786     2.84800e-18
342.50484     2.89400e-18
342.52179     3.01500e-18
342.53878     3.00700e-18
342.55573     2.88200e-18
342.57271     2.80800e-18
342.58967     2.80900e-18
342.60667     2.77600e-18
342.62365     2.74700e-18
342.64062     2.87900e-18
342.65762     3.08500e-18
342.67459     3.12400e-18
342.69158     3.03000e-18
342.70856     3.06800e-18
342.72556     3.28600e-18
342.74253     3.38100e-18
342.75953     3.22100e-18
342.77652     3.09600e-18
342.79352     3.27600e-18
342.81050     3.59900e-18
342.82751     3.71400e-18
342.84450     3.63200e-18
342.86151     3.56000e-18
342.87850     3.53500e-18
342.89552     3.50000e-18
342.91254     3.52900e-18
342.92953     3.76600e-18
342.94656     4.03400e-18
342.96356     4.04000e-18
342.98058     3.88900e-18
342.99758     3.93200e-18
343.01461     4.21600e-18
343.03161     4.43400e-18
343.04864     4.44300e-18
343.06566     4.43700e-18
343.08269     4.58800e-18
343.09970     4.73400e-18
343.11674     4.71100e-18
343.13376     4.63000e-18
343.15080     4.70200e-18
343.16784     4.93100e-18
343.18487     5.18100e-18
343.20191     5.30900e-18
343.21893     5.27200e-18
343.23598     5.18600e-18
343.25301     5.21900e-18
343.27006     5.39600e-18
343.28709     5.58600e-18
343.30416     5.71400e-18
343.32119     5.91700e-18
343.33824     6.21900e-18
343.35528     6.42400e-18
343.37235     6.42600e-18
343.38939     6.43400e-18
343.40645     6.62200e-18
343.42353     6.84000e-18
343.44057     6.85400e-18
343.45764     6.82800e-18
343.47469     7.02000e-18
343.49177     7.33800e-18
343.50882     7.47900e-18
343.52590     7.45300e-18
343.54296     7.56800e-18
343.56004     7.89900e-18
343.57710     8.21200e-18
343.59418     8.32200e-18
343.61125     8.33200e-18
343.62834     8.39000e-18
343.64540     8.56200e-18
343.66250     8.84900e-18
343.67959     9.13700e-18
343.69666     9.27900e-18
343.71375     9.25600e-18
343.73084     9.24400e-18
343.74793     9.36200e-18
343.76501     9.53600e-18
343.78212     9.62900e-18
343.79920     9.66300e-18
343.81630     9.72400e-18
343.83339     9.79400e-18
343.85051     9.86700e-18
343.86759     9.96900e-18
343.88470     1.01100e-17
343.90180     1.02800e-17
343.91892     1.04400e-17
343.93603     1.05300e-17
343.95313     1.04700e-17
343.97026     1.02900e-17
343.98736     1.01600e-17
344.00448     1.02000e-17
344.02159     1.02600e-17
344.03872     1.02300e-17
344.05582     1.02500e-17
344.07295     1.03900e-17
344.09007     1.04400e-17
344.10720     1.02300e-17
344.12431     1.00200e-17
344.14146     1.00500e-17
344.15858     1.00900e-17
344.17572     9.82200e-18
344.19285     9.40600e-18
344.20999     9.27700e-18
344.22714     9.44400e-18
344.24426     9.57400e-18
344.26142     9.49500e-18
344.27855     9.35500e-18
344.29570     9.23800e-18
344.31284     9.13100e-18
344.32999     9.05300e-18
344.34713     9.04900e-18
344.36429     9.02300e-18
344.38143     8.91400e-18
344.39860     8.83000e-18
344.41574     8.77000e-18
344.43291     8.55600e-18
344.45006     8.19800e-18
344.46723     7.99300e-18
344.48440     8.05200e-18
344.50156     8.05700e-18
344.51873     7.77400e-18
344.53588     7.47900e-18
344.55307     7.44700e-18
344.57023     7.44100e-18
344.58741     7.18100e-18
344.60457     6.82900e-18
344.62176     6.70900e-18
344.63893     6.77000e-18
344.65611     6.73300e-18
344.67329     6.59900e-18
344.69048     6.56600e-18
344.70765     6.57300e-18
344.72485     6.40500e-18
344.74205     6.08400e-18
344.75923     5.86100e-18
344.77643     5.80500e-18
344.79362     5.77300e-18
344.81082     5.64300e-18
344.82800     5.45900e-18
344.84521     5.34000e-18
344.86241     5.31600e-18
344.87962     5.26000e-18
344.89680     5.05700e-18
344.91403     4.78100e-18
344.93122     4.67800e-18
344.94844     4.78800e-18
344.96563     4.82700e-18
344.98286     4.59900e-18
345.00009     4.35000e-18
345.01729     4.37900e-18
345.03452     4.55100e-18
345.05173     4.47800e-18
345.06896     4.15200e-18
345.08616     3.89300e-18
345.10341     3.81800e-18
345.12062     3.75900e-18
345.13785     3.65100e-18
345.15508     3.63400e-18
345.17232     3.75700e-18
345.18954     3.82500e-18
345.20678     3.72800e-18
345.22401     3.55200e-18
345.24126     3.36400e-18
345.25848     3.20000e-18
345.27574     3.14300e-18
345.29299     3.22800e-18
345.31022     3.27900e-18
345.32748     3.11200e-18
345.34472     2.87300e-18
345.36198     2.83600e-18
345.37922     2.95000e-18
345.39649     2.94900e-18
345.41373     2.76600e-18
345.43099     2.65100e-18
345.44825     2.72100e-18
345.46552     2.80300e-18
345.48276     2.75700e-18
345.50004     2.62600e-18
345.51730     2.53200e-18
345.53457     2.46200e-18
345.55185     2.36300e-18
345.56912     2.27600e-18
345.58640     2.24600e-18
345.60366     2.25600e-18
345.62094     2.26500e-18
345.63822     2.26800e-18
345.65550     2.25200e-18
345.67277     2.16600e-18
345.69007     2.00800e-18
345.70734     1.83600e-18
345.72463     1.77000e-18
345.74191     1.85600e-18
345.75922     1.95900e-18
345.77649     1.93300e-18
345.79379     1.80700e-18
345.81111     1.74300e-18
345.82839     1.77500e-18
345.84570     1.75900e-18
345.86298     1.62400e-18
345.88030     1.53800e-18
345.89759     1.61700e-18
345.91490     1.73500e-18
345.93221     1.70300e-18
345.94952     1.57300e-18
345.96682     1.56000e-18
345.98414     1.63200e-18
346.00145     1.57300e-18
346.01877     1.35500e-18
346.03608     1.21900e-18
346.05341     1.31600e-18
346.07074     1.48500e-18
346.08805     1.50100e-18
346.10538     1.38200e-18
346.12271     1.32300e-18
346.14004     1.39600e-18
346.15736     1.46600e-18
346.17471     1.41400e-18
346.19202     1.31100e-18
346.20937     1.31100e-18
346.22669     1.41700e-18
346.24405     1.46600e-18
346.26137     1.34600e-18
346.27872     1.16400e-18
346.29606     1.09500e-18
346.31341     1.15300e-18
346.33077     1.20700e-18
346.34810     1.19300e-18
346.36547     1.17600e-18
346.38281     1.20300e-18
346.40017     1.22300e-18
346.41752     1.17500e-18
346.43489     1.08000e-18
346.45223     9.98700e-19
346.46960     9.64100e-19
346.48696     9.78000e-19
346.50433     1.03000e-18
346.52168     1.08800e-18
346.53907     1.08200e-18
346.55642     1.00000e-18
346.57380     8.90500e-19
346.59116     8.15200e-19
346.60856     7.94900e-19
346.62594     8.10700e-19
346.64330     8.71600e-19
346.66070     9.78600e-19
346.67807     1.08200e-18
346.69546     1.09900e-18
346.71284     1.02400e-18
346.73024     9.70100e-19
346.74761     1.02000e-18
346.76501     1.11100e-18
346.78240     1.11900e-18
346.79980     1.01400e-18
346.81718     9.11700e-19
346.83459     8.95100e-19
346.85198     9.22200e-19
346.86939     9.35900e-19
346.88680     9.57200e-19
346.90420     1.02000e-18
346.92162     1.03900e-18
346.93901     9.66100e-19
346.95644     8.97800e-19
346.97383     9.77100e-19
346.99126     1.18800e-18
347.00866     1.32100e-18
347.02609     1.25000e-18
347.04349     1.07900e-18
347.06092     9.85900e-19
347.07834     9.99400e-19
347.09577     1.01700e-18
347.11318     9.93100e-19
347.13062     1.00500e-18
347.14807     1.11400e-18
347.16548     1.21000e-18
347.18292     1.16600e-18
347.20035     1.04300e-18
347.21780     1.02700e-18
347.23522     1.16400e-18
347.25267     1.29000e-18
347.27010     1.29400e-18
347.28756     1.25000e-18
347.30498     1.23500e-18
347.32245     1.21300e-18
347.33988     1.15600e-18
347.35734     1.14800e-18
347.37478     1.23800e-18
347.39225     1.29900e-18
347.40971     1.22600e-18
347.42716     1.11800e-18
347.44464     1.13600e-18
347.46208     1.26000e-18
347.47955     1.33800e-18
347.49700     1.33600e-18
347.51448     1.30900e-18
347.53194     1.28300e-18
347.54941     1.25700e-18
347.56688     1.26200e-18
347.58436     1.34700e-18
347.60182     1.46200e-18
347.61930     1.52400e-18
347.63678     1.55600e-18
347.65427     1.56200e-18
347.67176     1.51300e-18
347.68924     1.45300e-18
347.70673     1.49500e-18
347.72420     1.66500e-18
347.74170     1.79600e-18
347.75918     1.75000e-18
347.77668     1.63300e-18
347.79416     1.62300e-18
347.81168     1.74200e-18
347.82916     1.89400e-18
347.84667     2.03000e-18
347.86415     2.12400e-18
347.88168     2.12700e-18
347.89916     2.05600e-18
347.91668     2.04100e-18
347.93418     2.18500e-18
347.95170     2.38900e-18
347.96922     2.48900e-18
347.98672     2.47100e-18
348.00425     2.42900e-18
348.02175     2.44800e-18
348.03928     2.53600e-18
348.05680     2.65100e-18
348.07433     2.76400e-18
348.09184     2.88000e-18
348.10937     3.03700e-18
348.12689     3.21700e-18
348.14443     3.31700e-18
348.16195     3.29300e-18
348.17950     3.26000e-18
348.19702     3.36800e-18
348.21456     3.55900e-18
348.23211     3.67700e-18
348.24964     3.71800e-18
348.26719     3.85400e-18
348.28472     4.12600e-18
348.30229     4.38400e-18
348.31982     4.51100e-18
348.33737     4.55900e-18
348.35492     4.60800e-18
348.37248     4.69500e-18
348.39002     4.85000e-18
348.40758     5.09100e-18
348.42514     5.27800e-18
348.44270     5.31100e-18
348.46025     5.37600e-18
348.47783     5.68300e-18
348.49540     6.04700e-18
348.51295     6.07500e-18
348.53053     5.84500e-18
348.54810     5.89700e-18
348.56568     6.41300e-18
348.58323     6.89000e-18
348.60083     6.88600e-18
348.61839     6.68600e-18
348.63598     6.77900e-18
348.65354     7.11300e-18
348.67114     7.28400e-18
348.68871     7.27100e-18
348.70631     7.37300e-18
348.72389     7.63000e-18
348.74149     7.76500e-18
348.75909     7.71600e-18
348.77666     7.70400e-18
348.79428     7.81500e-18
348.81186     7.89500e-18
348.82947     7.90100e-18
348.84706     7.99700e-18
348.86467     8.13700e-18
348.88226     8.08400e-18
348.89987     7.86200e-18
348.91748     7.82300e-18
348.93509     8.08900e-18
348.95269     8.31600e-18
348.97032     8.23400e-18
348.98792     8.05100e-18
349.00554     8.02700e-18
349.02315     8.09900e-18
349.04079     8.08100e-18
349.05841     8.02900e-18
349.07602     8.06400e-18
349.09367     8.04900e-18
349.11128     7.80800e-18
349.12891     7.54000e-18
349.14653     7.55600e-18
349.16418     7.79800e-18
349.18180     7.86900e-18
349.19944     7.62800e-18
349.21708     7.38800e-18
349.23472     7.41100e-18
349.25235     7.54000e-18
349.27000     7.47400e-18
349.28764     7.22400e-18
349.30529     7.03200e-18
349.32295     7.04600e-18
349.34060     7.14900e-18
349.35826     7.15600e-18
349.37589     6.98200e-18
349.39356     6.71000e-18
349.41121     6.52800e-18
349.42888     6.54200e-18
349.44652     6.65200e-18
349.46420     6.65100e-18
349.48185     6.48900e-18
349.49953     6.34600e-18
349.51719     6.36000e-18
349.53487     6.41800e-18
349.55252     6.36100e-18
349.57021     6.19300e-18
349.58790     6.05300e-18
349.60556     5.97800e-18
349.62325     5.90700e-18
349.64092     5.80800e-18
349.65861     5.72100e-18
349.67628     5.66600e-18
349.69398     5.62100e-18
349.71166     5.58300e-18
349.72936     5.54700e-18
349.74703     5.43700e-18
349.76474     5.22000e-18
349.78242     5.04400e-18
349.80013     5.08200e-18
349.81781     5.24900e-18
349.83553     5.26400e-18
349.85324     5.03200e-18
349.87093     4.78400e-18
349.88865     4.72700e-18
349.90634     4.77000e-18
349.92406     4.70100e-18
349.94176     4.54000e-18
349.95949     4.48700e-18
349.97719     4.57600e-18
349.99491     4.58700e-18
350.01262     4.37300e-18
350.03035     4.09700e-18
350.04806     3.99300e-18
350.06579     4.05500e-18
350.08351     4.09300e-18
350.10125     4.03000e-18
350.11898     3.95700e-18
350.13671     3.92800e-18
350.15445     3.87500e-18
350.17217     3.77800e-18
350.18991     3.72900e-18
350.20765     3.76500e-18
350.22539     3.76800e-18
350.24312     3.66400e-18
350.26088     3.53400e-18
350.27861     3.47100e-18
350.29636     3.42500e-18
350.31410     3.34500e-18
350.33187     3.28100e-18
350.34960     3.27300e-18
350.36737     3.24500e-18
350.38512     3.17400e-18
350.40288     3.14800e-18
350.42065     3.19000e-18
350.43839     3.18500e-18
350.45618     3.07700e-18
350.47393     2.98500e-18
350.49170     2.97400e-18
350.50947     2.93700e-18
350.52724     2.81400e-18
350.54500     2.74300e-18
350.56278     2.80800e-18
350.58055     2.84800e-18
350.59834     2.73600e-18
350.61610     2.62600e-18
350.63390     2.70800e-18
350.65167     2.85900e-18
350.66946     2.86900e-18
350.68726     2.77600e-18
350.70504     2.72700e-18
350.72284     2.68200e-18
350.74061     2.51600e-18
350.75843     2.33300e-18
350.77621     2.35100e-18
350.79401     2.53300e-18
350.81181     2.60200e-18
350.82962     2.44300e-18
350.84740     2.23600e-18
350.86521     2.17800e-18
350.88302     2.25700e-18
350.90083     2.35700e-18
350.91863     2.37800e-18
350.93645     2.28100e-18
350.95428     2.11600e-18
350.97208     2.03100e-18
350.98990     2.11500e-18
351.00772     2.25100e-18
351.02555     2.23600e-18
351.04335     2.05600e-18
351.06120     1.95400e-18
351.07901     2.06300e-18
351.09684     2.22500e-18
351.11466     2.20200e-18
351.13251     1.98100e-18
351.15033     1.78800e-18
351.16817     1.76300e-18
351.18600     1.83700e-18
351.20385     1.89100e-18
351.22170     1.92500e-18
351.23952     1.98000e-18
351.25739     1.99500e-18
351.27522     1.88800e-18
351.29307     1.75400e-18
351.31092     1.72700e-18
351.32878     1.78100e-18
351.34662     1.79600e-18
351.36448     1.74400e-18
351.38233     1.69100e-18
351.40020     1.63600e-18
351.41804     1.55700e-18
351.43593     1.55900e-18
351.45377     1.73700e-18
351.47165     1.93100e-18
351.48952     1.88400e-18
351.50739     1.63300e-18
351.52527     1.49600e-18
351.54313     1.59300e-18
351.56102     1.71900e-18
351.57888     1.69100e-18
351.59677     1.59100e-18
351.61463     1.56900e-18
351.63254     1.59500e-18
351.65040     1.60500e-18
351.66830     1.62800e-18
351.68618     1.66300e-18
351.70408     1.61700e-18
351.72196     1.50300e-18
351.73986     1.49000e-18
351.75775     1.62600e-18
351.77565     1.69500e-18
351.79356     1.55400e-18
351.81146     1.39200e-18
351.82937     1.44700e-18
351.84725     1.64400e-18
351.86517     1.69300e-18
351.88307     1.52000e-18
351.90099     1.32900e-18
351.91889     1.30400e-18
351.93682     1.39400e-18
351.95472     1.46100e-18
351.97264     1.43700e-18
351.99055     1.38900e-18
352.00849     1.41200e-18
352.02639     1.51100e-18
352.04432     1.58400e-18
352.06227     1.53400e-18
352.08018     1.41700e-18
352.09812     1.37800e-18
352.11604     1.43000e-18
352.13399     1.44300e-18
352.15191     1.38600e-18
352.16985     1.38300e-18
352.18779     1.49700e-18
352.20574     1.57900e-18
352.22366     1.50500e-18
352.24162     1.39700e-18
352.25956     1.42400e-18
352.27751     1.50800e-18
352.29545     1.45100e-18
352.31342     1.29300e-18
352.33138     1.27200e-18
352.34932     1.43700e-18
352.36729     1.55900e-18
352.38524     1.47400e-18
352.40321     1.32900e-18
352.42116     1.33400e-18
352.43914     1.43000e-18
352.45709     1.41300e-18
352.47507     1.25200e-18
352.49303     1.11700e-18
352.51101     1.17400e-18
352.52897     1.36800e-18
352.54695     1.52300e-18
352.56493     1.53100e-18
352.58291     1.41400e-18
352.60090     1.28600e-18
352.61888     1.22800e-18
352.63688     1.23900e-18
352.65485     1.29100e-18
352.67284     1.37100e-18
352.69083     1.45200e-18
352.70883     1.47400e-18
352.72681     1.40300e-18
352.74482     1.29600e-18
352.76280     1.25200e-18
352.78081     1.31200e-18
352.79880     1.42600e-18
352.81682     1.52400e-18
352.83481     1.55400e-18
352.85282     1.51500e-18
352.87083     1.45100e-18
352.88885     1.39600e-18
352.90687     1.33400e-18
352.92486     1.23800e-18
352.94290     1.18800e-18
352.96090     1.29800e-18
352.97893     1.49900e-18
352.99695     1.55200e-18
353.01498     1.37900e-18
353.03299     1.21500e-18
353.05102     1.27200e-18
353.06905     1.42200e-18
353.08708     1.42000e-18
353.10510     1.30400e-18
353.12316     1.30500e-18
353.14117     1.43400e-18
353.15922     1.46100e-18
353.17727     1.34600e-18
353.19531     1.29700e-18
353.21336     1.40400e-18
353.23139     1.49900e-18
353.24946     1.44600e-18
353.26749     1.36800e-18
353.28555     1.38000e-18
353.30358     1.40000e-18
353.32166     1.36200e-18
353.33970     1.38600e-18
353.35776     1.51800e-18
353.37582     1.57200e-18
353.39389     1.42600e-18
353.41194     1.28900e-18
353.43001     1.37500e-18
353.44810     1.54600e-18
353.46615     1.53100e-18
353.48423     1.39500e-18
353.50230     1.40200e-18
353.52038     1.53500e-18
353.53844     1.55500e-18
353.55653     1.44500e-18
353.57461     1.42300e-18
353.59270     1.50400e-18
353.61077     1.48300e-18
353.62887     1.35000e-18
353.64694     1.34400e-18
353.66504     1.49500e-18
353.68313     1.54300e-18
353.70123     1.40100e-18
353.71933     1.35000e-18
353.73741     1.54600e-18
353.75553     1.72800e-18
353.77362     1.64900e-18
353.79173     1.46300e-18
353.80983     1.44900e-18
353.82794     1.58100e-18
353.84604     1.63400e-18
353.86415     1.55800e-18
353.88226     1.51100e-18
353.90038     1.58000e-18
353.91848     1.69600e-18
353.93662     1.74800e-18
353.95472     1.68000e-18
353.97285     1.55300e-18
353.99098     1.51500e-18
354.00911     1.61700e-18
354.02724     1.70800e-18
354.04535     1.65200e-18
354.06350     1.57200e-18
354.08162     1.67000e-18
354.09976     1.87100e-18
354.11788     1.91500e-18
354.13604     1.79300e-18
354.15416     1.76600e-18
354.17231     1.92700e-18
354.19045     2.09900e-18
354.20861     2.11700e-18
354.22674     2.04400e-18
354.24489     1.99000e-18
354.26304     1.97100e-18
354.28120     2.00000e-18
354.29936     2.07800e-18
354.31752     2.14500e-18
354.33568     2.16800e-18
354.35383     2.23300e-18
354.37200     2.38100e-18
354.39016     2.49500e-18
354.40833     2.49200e-18
354.42648     2.50000e-18
354.44467     2.63900e-18
354.46283     2.77300e-18
354.48101     2.73700e-18
354.49917     2.67100e-18
354.51736     2.77700e-18
354.53553     2.99500e-18
354.55372     3.16300e-18
354.57192     3.28900e-18
354.59009     3.50000e-18
354.60828     3.73200e-18
354.62645     3.89400e-18
354.64466     4.12000e-18
354.66284     4.57000e-18
354.68104     5.11300e-18
354.69923     5.52400e-18
354.71744     5.85100e-18
354.73562     6.29700e-18
354.75383     6.89200e-18
354.77203     7.51800e-18
354.79024     8.13600e-18
354.80843     8.76600e-18
354.82666     9.34900e-18
354.84488     9.79500e-18
354.86308     1.01400e-17
354.88130     1.03800e-17
354.89951     1.04200e-17
354.91774     1.02600e-17
354.93594     1.01200e-17
354.95418     1.01100e-17
354.97239     1.00300e-17
354.99063     9.73200e-18
355.00885     9.36800e-18
355.02709     9.10600e-18
355.04530     8.88500e-18
355.06354     8.58600e-18
355.08177     8.30000e-18
355.10002     8.19200e-18
355.11826     8.19500e-18
355.13649     8.07300e-18
355.15475     7.75400e-18
355.17298     7.42600e-18
355.19123     7.23500e-18
355.20948     7.10500e-18
355.22774     6.92900e-18
355.24597     6.72500e-18
355.26425     6.55400e-18
355.28248     6.39800e-18
355.30075     6.17700e-18
355.31899     5.94200e-18
355.33727     5.81800e-18
355.35552     5.78800e-18
355.37379     5.69100e-18
355.39207     5.45600e-18
355.41033     5.20600e-18
355.42861     5.05000e-18
355.44687     4.91000e-18
355.46516     4.71200e-18
355.48342     4.55400e-18
355.50171     4.53300e-18
355.51998     4.53600e-18
355.53827     4.39200e-18
355.55654     4.13300e-18
355.57484     3.93200e-18
355.59312     3.87300e-18
355.61142     3.87100e-18
355.62969     3.82200e-18
355.64801     3.69800e-18
355.66628     3.54200e-18
355.68459     3.44600e-18
355.70290     3.43400e-18
355.72119     3.40400e-18
355.73950     3.26800e-18
355.75779     3.12400e-18
355.77612     3.07400e-18
355.79441     3.02900e-18
355.81273     2.82700e-18
355.83102     2.58500e-18
355.84936     2.54600e-18
355.86766     2.67300e-18
355.88598     2.70600e-18
355.90430     2.54800e-18
355.92263     2.37000e-18
355.94093     2.25700e-18
355.95927     2.15100e-18
355.97762     2.08300e-18
355.99593     2.15600e-18
356.01427     2.26000e-18
356.03259     2.16600e-18
356.05094     1.92400e-18
356.06926     1.82400e-18
356.08760     1.90500e-18
356.10594     1.93700e-18
356.12429     1.82200e-18
356.14262     1.70700e-18
356.16098     1.65800e-18
356.17932     1.59100e-18
356.19767     1.50400e-18
356.21601     1.50100e-18
356.23438     1.54600e-18
356.25275     1.50500e-18
356.27109     1.40900e-18
356.28947     1.38700e-18
356.30781     1.40600e-18
356.32618     1.34300e-18
356.34453     1.24500e-18
356.36292     1.24000e-18
356.38127     1.28400e-18
356.39965     1.23300e-18
356.41802     1.11600e-18
356.43640     1.07400e-18
356.45476     1.11500e-18
356.47315     1.15600e-18
356.49152     1.18200e-18
356.50991     1.22100e-18
356.52830     1.21200e-18
356.54669     1.09500e-18
356.56508     9.60300e-19
356.58345     9.15400e-19
356.60185     9.25000e-19
356.62024     9.35900e-19
356.63865     9.72000e-19
356.65703     9.96700e-19
356.67545     9.18500e-19
356.69383     7.99000e-19
356.71224     8.09100e-19
356.73064     9.10600e-19
356.74906     8.56000e-19
356.76745     6.41300e-19
356.78587     5.76300e-19
356.80428     7.94300e-19
356.82270     1.01500e-18
356.84112     9.72900e-19
356.85954     8.08100e-19
356.87796     7.78300e-19
356.89637     8.42800e-19
356.91480     8.20600e-19
356.93322     7.54400e-19
356.95166     8.04300e-19
356.97007     9.21500e-19
356.98852     9.19000e-19
357.00694     7.67900e-19
357.02538     6.36700e-19
357.04380     6.34700e-19
357.06226     7.10800e-19
357.08069     7.77000e-19
357.09914     8.11700e-19
357.11760     8.24100e-19
357.13603     8.30500e-19
357.15449     8.50800e-19
357.17292     8.55300e-19
357.19140     7.70900e-19
357.20983     6.03700e-19
357.22830     4.98900e-19
357.24675     6.00800e-19
357.26522     8.14700e-19
357.28367     8.94900e-19
357.30214     7.74800e-19
357.32060     6.72100e-19
357.33907     7.80700e-19
357.35753     9.71700e-19
357.37602     1.00900e-18
357.39450     8.76500e-19
357.41296     7.44900e-19
357.43144     6.79100e-19
357.44992     6.23200e-19
357.46841     5.94600e-19
357.48687     6.63800e-19
357.50538     7.72800e-19
357.52385     7.94900e-19
357.54235     7.64000e-19
357.56082     8.03700e-19
357.57933     8.84700e-19
357.59781     8.65400e-19
357.61632     7.81900e-19
357.63481     7.93300e-19
357.65332     8.72300e-19
357.67183     8.34600e-19
357.69031     6.92400e-19
357.70884     6.46700e-19
357.72733     7.20000e-19
357.74585     7.40200e-19
357.76436     6.75900e-19
357.78288     6.74100e-19
357.80138     7.51800e-19
357.81990     7.69600e-19
357.83842     7.51600e-19
357.85695     8.65200e-19
357.87545     1.05600e-18
357.89400     1.04600e-18
357.91251     7.96500e-19
357.93105     6.19600e-19
357.94959     6.98300e-19
357.96811     8.38200e-19
357.98666     8.24700e-19
358.00518     7.32400e-19
358.02374     7.35400e-19
358.04226     8.20300e-19
358.06081     8.65000e-19
358.07935     8.50900e-19
358.09790     8.49200e-19
358.11644     8.84100e-19
358.13499     9.18200e-19
358.15354     9.21900e-19
358.17210     9.11400e-19
358.19064     9.21500e-19
358.20922     9.92100e-19
358.22776     1.08500e-18
358.24633     1.09400e-18
358.26490     9.98100e-19
358.28347     9.01300e-19
358.30204     8.97200e-19
358.32059     9.62300e-19
358.33919     1.02700e-18
358.35774     1.03600e-18
358.37632     9.63100e-19
358.39488     8.52000e-19
358.41348     8.22800e-19
358.43205     9.38300e-19
358.45064     1.06800e-18
358.46922     1.05800e-18
358.48781     9.81900e-19
358.50638     9.90200e-19
358.52498     1.03700e-18
358.54360     9.71900e-19
358.56217     8.65600e-19
358.58078     9.37500e-19
358.59937     1.15800e-18
358.61798     1.23300e-18
358.63657     1.05800e-18
358.65518     9.17300e-19
358.67378     1.03400e-18
358.69240     1.25000e-18
358.71099     1.29000e-18
358.72962     1.16600e-18
358.74822     1.08700e-18
358.76684     1.12500e-18
358.78544     1.16700e-18
358.80408     1.14800e-18
358.82271     1.13500e-18
358.84132     1.20000e-18
358.85996     1.27300e-18
358.87857     1.24800e-18
358.89721     1.14500e-18
358.91582     1.07900e-18
358.93448     1.11800e-18
358.95310     1.20600e-18
358.97174     1.25700e-18
358.99038     1.27500e-18
359.00902     1.31300e-18
359.02765     1.37100e-18
359.04630     1.40000e-18
359.06494     1.39800e-18
359.08360     1.41200e-18
359.10226     1.45800e-18
359.12091     1.50700e-18
359.13957     1.51900e-18
359.15821     1.49500e-18
359.17688     1.47800e-18
359.19553     1.51600e-18
359.21420     1.60800e-18
359.23285     1.67500e-18
359.25154     1.64700e-18
359.27019     1.57100e-18
359.28886     1.55900e-18
359.30753     1.61000e-18
359.32621     1.64600e-18
359.34487     1.65800e-18
359.36356     1.69600e-18
359.38226     1.75400e-18
359.40092     1.75200e-18
359.41961     1.72400e-18
359.43828     1.78300e-18
359.45699     1.92500e-18
359.47566     1.99400e-18
359.49436     1.91000e-18
359.51305     1.80100e-18
359.53175     1.80700e-18
359.55043     1.89300e-18
359.56915     1.94500e-18
359.58784     1.94100e-18
359.60655     1.91800e-18
359.62523     1.92700e-18
359.64396     1.97600e-18
359.66265     2.01000e-18
359.68137     1.97300e-18
359.70009     1.91700e-18
359.71880     1.97100e-18
359.73753     2.15100e-18
359.75623     2.30100e-18
359.77497     2.26500e-18
359.79368     2.11800e-18
359.81241     2.03600e-18
359.83113     2.06600e-18
359.84987     2.13300e-18
359.86858     2.22500e-18
359.88732     2.33600e-18
359.90605     2.37900e-18
359.92479     2.29500e-18
359.94351     2.17400e-18
359.96227     2.18100e-18
359.98102     2.32100e-18
359.99975     2.45300e-18
360.01850     2.49400e-18
360.03725     2.48000e-18
360.05601     2.46900e-18
360.07474     2.45100e-18
360.09351     2.43600e-18
360.11225     2.45100e-18
360.13102     2.51300e-18
360.14976     2.59100e-18
360.16854     2.59700e-18
360.18729     2.53100e-18
360.20606     2.49900e-18
360.22482     2.59400e-18
360.24360     2.72300e-18
360.26238     2.70200e-18
360.28114     2.53100e-18
360.29993     2.43100e-18
360.31869     2.53500e-18
360.33748     2.68700e-18
360.35626     2.71900e-18
360.37505     2.65600e-18
360.39382     2.64500e-18
360.41261     2.69200e-18
360.43139     2.72100e-18
360.45019     2.73400e-18
360.46897     2.77100e-18
360.48778     2.79800e-18
360.50656     2.77800e-18
360.52537     2.76200e-18
360.54418     2.78800e-18
360.56298     2.78000e-18
360.58179     2.70500e-18
360.60058     2.69100e-18
360.61941     2.83500e-18
360.63820     2.98100e-18
360.65702     2.93600e-18
360.67582     2.78100e-18
360.69466     2.74100e-18
360.71346     2.85600e-18
360.73229     2.95000e-18
360.75110     2.88100e-18
360.76993     2.72800e-18
360.78874     2.65200e-18
360.80758     2.69900e-18
360.82641     2.78700e-18
360.84525     2.80900e-18
360.86409     2.74200e-18
360.88292     2.64100e-18
360.90177     2.56300e-18
360.92059     2.52500e-18
360.93944     2.49600e-18
360.95828     2.47400e-18
360.97713     2.47800e-18
360.99596     2.52300e-18
361.01483     2.61700e-18
361.03367     2.69800e-18
361.05253     2.68100e-18
361.07138     2.54000e-18
361.09024     2.39500e-18
361.10909     2.39400e-18
361.12796     2.46800e-18
361.14684     2.43700e-18
361.16569     2.30700e-18
361.18456     2.28600e-18
361.20343     2.42900e-18
361.22231     2.48500e-18
361.24116     2.30200e-18
361.26005     2.08900e-18
361.27892     2.11300e-18
361.29781     2.30400e-18
361.31667     2.37400e-18
361.33558     2.23800e-18
361.35444     2.05700e-18
361.37334     1.98000e-18
361.39221     2.01900e-18
361.41112     2.09800e-18
361.43002     2.13700e-18
361.44890     2.07600e-18
361.46782     1.97900e-18
361.48670     1.97400e-18
361.50561     2.03600e-18
361.52450     1.99500e-18
361.54342     1.84000e-18
361.56231     1.77700e-18
361.58123     1.87700e-18
361.60013     1.92100e-18
361.61906     1.77700e-18
361.63795     1.66700e-18
361.65688     1.79100e-18
361.67579     1.97600e-18
361.69472     1.94200e-18
361.71365     1.76400e-18
361.73257     1.72400e-18
361.75151     1.83500e-18
361.77042     1.86500e-18
361.78936     1.75700e-18
361.80828     1.68600e-18
361.82723     1.74400e-18
361.84615     1.83000e-18
361.86511     1.85700e-18
361.88403     1.81200e-18
361.90298     1.70800e-18
361.92191     1.59300e-18
361.94087     1.60400e-18
361.95981     1.76300e-18
361.97876     1.85900e-18
361.99774     1.72500e-18
362.01667     1.52300e-18
362.03564     1.49800e-18
362.05458     1.59400e-18
362.07356     1.57700e-18
362.09251     1.45200e-18
362.11148     1.42400e-18
362.13044     1.51800e-18
362.14942     1.54600e-18
362.16837     1.45900e-18
362.18735     1.41700e-18
362.20632     1.47200e-18
362.22531     1.47700e-18
362.24427     1.36600e-18
362.26327     1.28400e-18
362.28223     1.34800e-18
362.30122     1.46600e-18
362.32022     1.49900e-18
362.33920     1.42700e-18
362.35820     1.31000e-18
362.37718     1.21400e-18
362.39619     1.21500e-18
362.41517     1.32600e-18
362.43418     1.41700e-18
362.45317     1.34300e-18
362.47218     1.17600e-18
362.49117     1.12400e-18
362.51018     1.19300e-18
362.52919     1.19100e-18
362.54820     1.07500e-18
362.56720     1.00800e-18
362.58623     1.09500e-18
362.60526     1.19300e-18
362.62426     1.18600e-18
362.64329     1.17000e-18
362.66231     1.25900e-18
362.68134     1.35700e-18
362.70035     1.30800e-18
362.71940     1.17000e-18
362.73841     1.09000e-18
362.75745     1.07600e-18
362.77646     1.02800e-18
362.79552     9.61300e-19
362.81454     9.80500e-19
362.83359     1.07400e-18
362.85263     1.10600e-18
362.87168     1.03600e-18
362.89074     9.79700e-19
362.90977     1.03000e-18
362.92884     1.13800e-18
362.94787     1.20400e-18
362.96693     1.19700e-18
362.98599     1.14400e-18
363.00505     1.09700e-18
363.02409     1.11200e-18
363.04316     1.15700e-18
363.06222     1.13300e-18
363.08130     1.00500e-18
363.10035     9.25800e-19
363.11944     9.98800e-19
363.13849     1.07100e-18
363.15758     9.74100e-19
363.17666     8.38900e-19
363.19573     9.05100e-19
363.21482     1.09700e-18
363.23389     1.09600e-18
363.25299     8.58100e-19
363.27206     7.00900e-19
363.29116     7.87100e-19
363.31023     9.25000e-19
363.32934     9.44200e-19
363.34842     9.49900e-19
363.36752     1.02300e-18
363.38662     1.01400e-18
363.40573     8.42100e-19
363.42481     7.10200e-19
363.44392     7.72200e-19
363.46305     8.87000e-19
363.48214     8.60900e-19
363.50126     7.66700e-19
363.52037     7.63000e-19
363.53949     8.17000e-19
363.55859     8.38000e-19
363.57772     8.67400e-19
363.59683     9.16500e-19
363.61596     9.03100e-19
363.63507     8.40100e-19
363.65422     8.75800e-19
363.67333     1.00800e-18
363.69246     1.02300e-18
363.71159     8.52400e-19
363.73074     7.38100e-19
363.74985     8.24700e-19
363.76900     9.07200e-19
363.78816     8.12800e-19
363.80729     7.03100e-19
363.82644     7.43000e-19
363.84557     8.10600e-19
363.86474     7.53100e-19
363.88387     6.71900e-19
363.90303     7.17900e-19
363.92218     7.97200e-19
363.94135     7.68800e-19
363.96049     7.02800e-19
363.97967     7.21600e-19
363.99881     7.72300e-19
364.01799     7.66200e-19
364.03714     7.54000e-19
364.05633     7.87100e-19
364.07550     8.05900e-19
364.09466     7.86400e-19
364.11384     8.18900e-19
364.13301     9.10000e-19
364.15220     9.45400e-19
364.17136     9.24500e-19
364.19057     9.82000e-19
364.20974     1.11100e-18
364.22893     1.14000e-18
364.24812     1.04300e-18
364.26731     9.96800e-19
364.28649     1.05000e-18
364.30569     1.01800e-18
364.32488     8.54600e-19
364.34409     7.61400e-19
364.36330     8.48400e-19
364.38250     9.74200e-19
364.40171     1.03000e-18
364.42090     1.09900e-18
364.44012     1.19500e-18
364.45933     1.16600e-18
364.47855     9.97300e-19
364.49774     9.05100e-19
364.51698     9.76100e-19
364.53618     1.01800e-18
364.55541     8.84600e-19
364.57462     7.42100e-19
364.59387     7.93500e-19
364.61308     9.73000e-19
364.63231     1.10900e-18
364.65157     1.14400e-18
364.67078     1.08100e-18
364.69003     9.20700e-19
364.70925     7.71000e-19
364.72851     8.06200e-19
364.74773     9.89600e-19
364.76698     1.04600e-18
364.78622     8.56700e-19
364.80548     6.57900e-19
364.82471     6.90600e-19
364.84397     8.54700e-19
364.86322     9.16200e-19
364.88248     8.36100e-19
364.90172     7.80000e-19
364.92101     8.26900e-19
364.94025     9.00800e-19
364.95952     9.09700e-19
364.97880     8.47700e-19
364.99806     7.63800e-19
365.01734     7.25000e-19
365.03659     7.51300e-19
365.05589     7.89800e-19
365.07514     7.89900e-19
365.09443     7.35800e-19
365.11369     6.69000e-19
365.13300     6.41900e-19
365.15226     6.84100e-19
365.17156     7.74400e-19
365.19084     8.39900e-19
365.21014     8.25600e-19
365.22941     7.85000e-19
365.24872     8.12600e-19
365.26804     8.74100e-19
365.28732     8.43900e-19
365.30663     7.26400e-19
365.32592     6.71400e-19
365.34524     7.44400e-19
365.36452     8.03500e-19
365.38384     7.50000e-19
365.40315     7.03600e-19
365.42247     8.02500e-19
365.44177     9.80300e-19
365.46110     1.03700e-18
365.48040     9.60000e-19
365.49973     9.19300e-19
365.51905     1.00100e-18
365.53839     1.12100e-18
365.55772     1.13200e-18
365.57703     1.01700e-18
365.59639     9.01200e-19
365.61570     8.80700e-19
365.63504     9.03300e-19
365.65438     8.48200e-19
365.67372     7.53300e-19
365.69305     7.85100e-19
365.71240     9.51400e-19
365.73174     1.02300e-18
365.75110     8.85900e-19
365.77043     7.57100e-19
365.78980     8.31400e-19
365.80914     9.72000e-19
365.82850     9.30900e-19
365.84787     7.58200e-19
365.86722     6.79900e-19
365.88659     7.20200e-19
365.90594     7.25800e-19
365.92533     6.99900e-19
365.94468     7.63600e-19
365.96405     8.92200e-19
365.98341     9.51100e-19
366.00280     9.42500e-19
366.02216     9.45800e-19
366.04155     9.10500e-19
366.06092     7.73000e-19
366.08032     6.76800e-19
366.09968     7.56400e-19
366.11908     8.63700e-19
366.13849     7.98500e-19
366.15786     6.67500e-19
366.17726     6.78900e-19
366.19665     7.74400e-19
366.21606     7.98400e-19
366.23544     8.14000e-19
366.25485     9.35400e-19
366.27424     1.01900e-18
366.29366     8.75500e-19
366.31305     6.96400e-19
366.33248     7.88700e-19
366.35187     1.04100e-18
366.37129     1.09000e-18
366.39069     9.15600e-19
366.41013     8.22500e-19
366.42953     8.99700e-19
366.44896     9.57200e-19
366.46840     9.44800e-19
366.48781     1.02300e-18
366.50725     1.19500e-18
366.52666     1.24300e-18
366.54611     1.08900e-18
366.56553     9.50700e-19
366.58497     9.71900e-19
366.60441     1.06600e-18
366.62385     1.07600e-18
366.64328     9.89500e-19
366.66273     9.06400e-19
366.68217     9.00400e-19
366.70163     9.83200e-19
366.72106     1.06200e-18
366.74054     1.06100e-18
366.76000     1.02300e-18
366.77944     1.05100e-18
366.79890     1.11600e-18
366.81836     1.08200e-18
366.83783     9.80500e-19
366.85728     1.01800e-18
366.87677     1.20700e-18
366.89622     1.26400e-18
366.91570     1.05900e-18
366.93516     8.71400e-19
366.95465     9.56000e-19
366.97411     1.16700e-18
366.99359     1.23600e-18
367.01307     1.18500e-18
367.03256     1.21000e-18
367.05206     1.30200e-18
367.07154     1.30300e-18
367.09104     1.23900e-18
367.11051     1.28200e-18
367.13001     1.38300e-18
367.14950     1.34600e-18
367.16901     1.21100e-18
367.18849     1.23100e-18
367.20802     1.45000e-18
367.22750     1.58900e-18
367.24702     1.47100e-18
367.26651     1.28900e-18
367.28604     1.27200e-18
367.30553     1.33200e-18
367.32506     1.26700e-18
367.34459     1.12100e-18
367.36409     1.11600e-18
367.38362     1.29900e-18
367.40313     1.46900e-18
367.42267     1.48600e-18
367.44218     1.42300e-18
367.46172     1.39700e-18
367.48125     1.44100e-18
367.50079     1.54000e-18
367.52030     1.63400e-18
367.53985     1.60900e-18
367.55939     1.43400e-18
367.57894     1.25900e-18
367.59846     1.25900e-18
367.61803     1.35900e-18
367.63758     1.39400e-18
367.65712     1.37400e-18
367.67668     1.45000e-18
367.69622     1.58700e-18
367.71579     1.57000e-18
367.73533     1.39900e-18
367.75491     1.28500e-18
367.77445     1.31300e-18
367.79403     1.37100e-18
367.81358     1.38200e-18
367.83317     1.41600e-18
367.85272     1.46300e-18
367.87230     1.41500e-18
367.89187     1.31100e-18
367.91145     1.32900e-18
367.93101     1.47800e-18
367.95060     1.56200e-18
367.97021     1.49200e-18
367.98978     1.41100e-18
368.00937     1.38900e-18
368.02896     1.34700e-18
368.04856     1.29000e-18
368.06813     1.34600e-18
368.08774     1.51700e-18
368.10733     1.60700e-18
368.12694     1.54500e-18
368.14652     1.48300e-18
368.16615     1.52000e-18
368.18573     1.54300e-18
368.20535     1.46600e-18
368.22496     1.38600e-18
368.24458     1.43200e-18
368.26420     1.54500e-18
368.28380     1.56700e-18
368.30344     1.47600e-18
368.32304     1.37900e-18
368.34267     1.37500e-18
368.36228     1.41600e-18
368.38193     1.38200e-18
368.40154     1.23400e-18
368.42118     1.07900e-18
368.44080     1.03200e-18
368.46045     1.07400e-18
368.48007     1.11700e-18
368.49973     1.16600e-18
368.51935     1.30200e-18
368.53900     1.49400e-18
368.55866     1.57300e-18
368.57830     1.46300e-18
368.59796     1.28700e-18
368.61759     1.17000e-18
368.63726     1.10800e-18
368.65691     1.05600e-18
368.67657     9.99000e-19
368.69622     9.74700e-19
368.71590     1.02500e-18
368.73555     1.15800e-18
368.75522     1.28900e-18
368.77489     1.29400e-18
368.79457     1.20100e-18
368.81422     1.19500e-18
368.83390     1.35000e-18
368.85360     1.44900e-18
368.87326     1.27200e-18
368.89295     9.45900e-19
368.91263     7.97100e-19
368.93233     8.94400e-19
368.95200     1.00100e-18
368.97169     9.32500e-19
368.99138     8.20800e-19
369.01108     8.64500e-19
369.03076     1.01600e-18
369.05048     1.05500e-18
369.07016     9.32800e-19
369.08987     8.46500e-19
369.10956     9.32800e-19
369.12929     1.02400e-18
369.14898     9.11100e-19
369.16870     7.30800e-19
369.18843     7.87500e-19
369.20813     1.02800e-18
369.22786     1.09600e-18
369.24756     8.87900e-19
369.26730     7.49000e-19
369.28701     8.96100e-19
369.30674     1.07400e-18
369.32646     1.00300e-18
369.34620     8.30100e-19
369.36591     8.36600e-19
369.38566     9.88700e-19
369.40539     1.04900e-18
369.42513     9.59000e-19
369.44486     8.54600e-19
369.46462     8.43400e-19
369.48437     9.32100e-19
369.50410     1.04000e-18
369.52386     1.04000e-18
369.54361     8.78300e-19
369.56337     7.25500e-19
369.58310     7.54400e-19
369.60288     8.31200e-19
369.62262     7.63100e-19
369.64239     6.94500e-19
369.66214     8.75500e-19
369.68193     1.09900e-18
369.70168     9.61500e-19
369.72145     6.02200e-19
369.74122     5.27500e-19
369.76100     7.59700e-19
369.78079     8.25400e-19
369.80055     6.13100e-19
369.82035     5.31200e-19
369.84012     7.22900e-19
369.85991     8.30700e-19
369.87969     7.04700e-19
369.89949     6.77500e-19
369.91926     8.68800e-19
369.93906     9.36300e-19
369.95885     7.19500e-19
369.97866     5.55500e-19
369.99844     6.18700e-19
370.01826     6.50000e-19
370.03805     5.37600e-19
370.05786     5.29400e-19
370.07768     7.08700e-19
370.09749     7.77700e-19
370.11731     6.18300e-19
370.13710     5.04700e-19
370.15694     6.11400e-19
370.17674     7.37800e-19
370.19657     7.16100e-19
370.21639     6.78600e-19
370.23622     6.86500e-19
370.25603     6.47600e-19
370.27587     6.03600e-19
370.29569     6.95800e-19
370.31554     7.90100e-19
370.33535     6.45200e-19
370.35521     4.07200e-19
370.37506     4.04800e-19
370.39489     7.14100e-19
370.41474     8.05300e-19
370.43458     5.79600e-19
370.45444     4.47100e-19
370.47427     6.15500e-19
370.49414     8.13700e-19
370.51398     7.81400e-19
370.53384     6.52200e-19
370.55368     5.84700e-19
370.57357     5.12700e-19
370.59341     4.37400e-19
370.61329     4.93100e-19
370.63315     6.35400e-19
370.65303     6.37100e-19
370.67288     4.88400e-19
370.69276     4.30800e-19
370.71266     5.81200e-19
370.73252     7.21100e-19
370.75241     6.67100e-19
370.77229     5.42300e-19
370.79218     4.91300e-19
370.81205     4.79600e-19
370.83195     4.39500e-19
370.85183     3.99100e-19
370.87173     4.20000e-19
370.89161     4.76800e-19
370.91153     5.16100e-19
370.93141     5.33600e-19
370.95132     5.42600e-19
370.97121     5.55600e-19
370.99113     5.86200e-19
371.01105     6.16600e-19
371.03094     5.97000e-19
371.05088     5.30700e-19
371.07077     4.94900e-19
371.09070     5.04700e-19
371.11060     4.87200e-19
371.13054     4.16500e-19
371.15045     4.09900e-19
371.17038     5.34900e-19
371.19030     6.61500e-19
371.21024     6.28800e-19
371.23015     4.46100e-19
371.25010     2.73600e-19
371.27003     2.40200e-19
371.28997     3.41800e-19
371.30992     4.86400e-19
371.32986     5.68200e-19
371.34981     5.44200e-19
371.36974     4.66600e-19
371.38970     4.16800e-19
371.40964     3.84300e-19
371.42961     3.59000e-19
371.44954     4.04200e-19
371.46952     5.54900e-19
371.48946     7.00600e-19
371.50943     6.81000e-19
371.52939     4.84400e-19
371.54937     2.61400e-19
371.56931     1.47100e-19
371.58929     1.81500e-19
371.60929     3.14300e-19
371.62924     4.04300e-19
371.64923     2.95500e-19
371.66920     1.08100e-19
371.68919     1.86800e-19
371.70916     5.84900e-19
371.72915     8.94600e-19
371.74913     7.63200e-19
371.76913     4.45500e-19
371.78910     3.89000e-19
371.80912     5.16500e-19
371.82910     4.60400e-19
371.84910     2.83400e-19
371.86909     3.51800e-19
371.88911     6.26500e-19
371.90912     6.61300e-19
371.92911     3.79100e-19
371.94914     2.29000e-19
371.96914     4.12300e-19
371.98916     5.70900e-19
372.00915     4.60800e-19
372.02919     3.60500e-19
372.04919     5.15800e-19
372.06922     6.79300e-19
372.08924     5.41100e-19
372.10928     3.18900e-19
372.12929     3.50400e-19
372.14933     5.09200e-19
372.16935     4.51100e-19
372.18940     2.33600e-19
372.20942     2.12800e-19
372.22948     4.48600e-19
372.24953     6.27900e-19
372.26955     5.37200e-19
372.28961     3.82800e-19
372.30965     4.32800e-19
372.32971     6.06600e-19
372.34974     6.57200e-19
372.36982     5.18800e-19
372.38985     3.80100e-19
372.40992     4.01800e-19
372.42996     5.27400e-19
372.45005     6.10600e-19
372.47009     6.02900e-19
372.49017     5.51700e-19
372.51023     4.64100e-19
372.53031     3.62700e-19
372.55040     3.97800e-19
372.57045     6.44300e-19
372.59055     8.22800e-19
372.61062     6.11900e-19
372.63071     1.95400e-19
372.65079     8.73300e-20
372.67088     3.90000e-19
372.69095     6.33500e-19
372.71105     5.45900e-19
372.73114     4.20800e-19
372.75124     5.12700e-19
372.77132     5.95000e-19
372.79144     3.94700e-19
372.81153     1.02800e-19
372.83164     5.51000e-20
372.85175     2.11900e-19
372.87186     3.03600e-19
372.89198     2.88600e-19
372.91207     2.81400e-19
372.93221     3.10900e-19
372.95231     3.32000e-19
372.97243     4.02100e-19
372.99254     5.30500e-19
373.01268     5.87000e-19
373.03279     5.05100e-19
373.05292     3.94800e-19
373.07305     3.22400e-19
373.09319     2.13400e-19
373.11331     1.21600e-19
373.13347     1.95500e-19
373.15361     3.88500e-19
373.17373     4.68000e-19
373.19389     4.01700e-19
373.21403     3.77000e-19
373.23418     4.09400e-19
373.25431     3.38700e-19
373.27447     1.80700e-19
373.29462     1.75200e-19
373.31479     3.14000e-19
373.33493     3.67600e-19
373.35511     3.31700e-19
373.37525     3.85500e-19
373.39543     4.73600e-19
373.41559     3.46800e-19
373.43577     1.44000e-19
373.45592     1.91300e-19
373.47610     4.11700e-19
373.49630     3.91000e-19
373.51646     1.55400e-19
373.53665     1.77100e-19
373.55682     5.11900e-19
373.57702     6.33400e-19
373.59718     3.53700e-19
373.61738     1.84800e-19
373.63757     4.30700e-19
373.65777     6.81700e-19
373.67795     5.09200e-19
373.69817     2.08200e-19
373.71835     2.33200e-19
373.73856     4.52900e-19
373.75874     4.72100e-19
373.77897     3.18100e-19
373.79919     3.24500e-19
373.81938     4.99600e-19
373.83962     5.61500e-19
373.85981     4.55200e-19
373.88004     4.47500e-19
373.90024     6.06400e-19
373.92048     7.08400e-19
373.94069     5.58900e-19
373.96092     3.06500e-19
373.98114     2.41800e-19
374.00138     3.99600e-19
374.02160     5.60900e-19
374.04184     5.42600e-19
374.06207     4.42600e-19
374.08232     5.09000e-19
374.10257     7.53200e-19
374.12281     9.06100e-19
374.14306     8.19900e-19
374.16329     7.12800e-19
374.18355     7.42100e-19
374.20380     7.51700e-19
374.22406     5.89500e-19
374.24430     4.80700e-19
374.26458     6.75600e-19
374.28482     9.58200e-19
374.30509     8.72900e-19
374.32534     4.76000e-19
374.34563     2.87300e-19
374.36588     4.97200e-19
374.38616     7.41200e-19
374.40646     7.45800e-19
374.42672     6.85300e-19
374.44700     7.33000e-19
374.46726     7.72300e-19
374.48757     7.07400e-19
374.50784     7.12300e-19
374.52813     8.61700e-19
374.54842     9.42100e-19
374.56872     8.21600e-19
374.58899     6.87200e-19
374.60930     7.34900e-19
374.62959     8.21600e-19
374.64990     7.81300e-19
374.67018     7.31700e-19
374.69051     8.32100e-19
374.71083     9.67300e-19
374.73112     9.58500e-19
374.75144     8.57300e-19
374.77175     8.11000e-19
374.79207     7.86500e-19
374.81237     7.24900e-19
374.83271     7.48600e-19
374.85302     9.29800e-19
374.87335     1.07100e-18
374.89367     9.66200e-19
374.91401     7.68100e-19
374.93432     7.71700e-19
374.95466     9.21500e-19
374.97499     9.04700e-19
374.99534     6.63900e-19
375.01566     4.77400e-19
375.03603     5.53200e-19
375.05638     7.21000e-19
375.07671     7.15000e-19
375.09707     5.75100e-19
375.11741     5.54000e-19
375.13777     7.25900e-19
375.15811     9.03900e-19
375.17849     8.75100e-19
375.19883     6.99700e-19
375.21920     5.67900e-19
375.23955     5.51800e-19
375.25994     6.01900e-19
375.28029     6.33200e-19
375.30067     6.51800e-19
375.32104     6.45900e-19
375.34142     6.06500e-19
375.36181     5.88400e-19
375.38217     5.94200e-19
375.40257     5.47000e-19
375.42294     4.44300e-19
375.44333     4.46600e-19
375.46372     6.23300e-19
375.48412     7.73700e-19
375.50449     7.11300e-19
375.52489     5.77300e-19
375.54529     5.95200e-19
375.56570     6.50400e-19
375.58608     5.29200e-19
375.60651     3.27700e-19
375.62689     2.90900e-19
375.64731     3.79300e-19
375.66773     4.03000e-19
375.68814     4.06800e-19
375.70856     5.47400e-19
375.72896     6.63500e-19
375.74940     4.54900e-19
375.76981     5.91900e-20
375.79024    -3.89400e-20
375.81065     2.67300e-19
375.83110     5.78400e-19
375.85151     6.19400e-19
375.87195     5.66400e-19
375.89238     5.65200e-19
375.91283     5.21700e-19
375.93325     3.79300e-19
375.95370     2.94100e-19
375.97417     3.44200e-19
375.99460     3.86800e-19
376.01505     3.28200e-19
376.03550     2.63600e-19
376.05596     2.52500e-19
376.07640     2.83300e-19
376.09686     3.17000e-19
376.11732     3.38100e-19
376.13779     2.46800e-19
376.15823     3.65700e-20
376.17872    -6.28900e-20
376.19917     9.02200e-20
376.21965     3.45600e-19
376.24012     4.09300e-19
376.26060     3.01700e-19
376.28109     2.76100e-19
376.30155     3.49100e-19
376.32206     3.04100e-19
376.34252     1.22200e-19
376.36302     4.07300e-20
376.38350     1.88600e-19
376.40400     3.74600e-19
376.42447     3.45100e-19
376.44498     1.49100e-19
376.46547     8.04600e-20
376.48598     2.87400e-19
376.50646     5.43500e-19
376.52699     5.35400e-19
376.54748     2.82800e-19
376.56800     1.87300e-19
376.58849     4.04700e-19
376.60902     6.69200e-19
376.62955     6.70300e-19
376.65005     4.76100e-19
376.67059     2.93800e-19
376.69109     1.90500e-19
376.71163     1.35900e-19
376.73213     2.20800e-19
376.75269     4.74700e-19
376.77320     5.81300e-19
376.79374     3.44800e-19
376.81427     6.62500e-20
376.83482     1.11400e-19
376.85534     3.60800e-19
376.87589     4.02000e-19
376.89643     1.90800e-19
376.91699     6.16400e-20
376.93754     1.75800e-19
376.95809     3.23700e-19
376.97865     3.32100e-19
376.99919     3.10000e-19
377.01976     3.54600e-19
377.04031     3.71400e-19
377.06088     3.07500e-19
377.08143     2.09600e-19
377.10202     1.43400e-19
377.12257     3.71000e-20
377.14315    -5.70500e-20
377.16370     7.34500e-20
377.18430     4.69400e-19
377.20486     8.20800e-19
377.22545     6.82900e-19
377.24606     1.28300e-19
377.26662    -2.56500e-19
377.28722    -9.82400e-20
377.30779     3.62800e-19
377.32840     5.65100e-19
377.34898     3.82600e-19
377.36958     1.45100e-19
377.39018     9.63600e-20
377.41079     1.70900e-19
377.43137     2.46700e-19
377.45198     2.78800e-19
377.47259     1.86200e-19
377.49321    -5.01800e-20
377.51380    -1.53800e-19
377.53444     1.16600e-19
377.55506     5.02000e-19
377.57566     4.96500e-19
377.59629     1.73000e-19
377.61691     6.94400e-20
377.63754     3.45700e-19
377.65815     5.31000e-19
377.67880     3.27400e-19
377.69942     3.95100e-20
377.72006    -4.49000e-20
377.74068    -9.72000e-20
377.76134    -2.43400e-19
377.78196    -2.20000e-19
377.80262     1.50400e-19
377.82326     5.31400e-19
377.84391     6.17100e-19
377.86457     5.75400e-19
377.88522     6.28800e-19
377.90588     5.81600e-19
377.92652     2.84600e-19
377.94719     3.63200e-20
377.96785     1.13200e-19
377.98852     3.15900e-19
378.00917     2.92800e-19
378.02984     1.83700e-19
378.05051     3.17600e-19
378.07119     5.52300e-19
378.09185     4.20700e-19
378.11255    -4.28500e-20
378.13321    -2.60200e-19
378.15390     6.85500e-20
378.17458     5.16600e-19
378.19527     4.91800e-19
378.21597     4.74600e-20
378.23664    -2.47400e-19
378.25736    -8.48200e-20
378.27803     2.25600e-19
378.29874     3.24900e-19
378.31944     1.95500e-19
378.34015     1.50900e-19
378.36083     2.72300e-19
378.38155     3.65200e-19
378.40225     3.07200e-19
378.42297     1.72400e-19
378.44367     1.21100e-19
378.46441     1.85000e-19
378.48511     2.50900e-19
378.50583     1.96300e-19
378.52657     3.37100e-20
378.54729    -7.48700e-20
378.56802    -1.39700e-20
378.58873     1.32100e-19
378.60949     1.32600e-19
378.63020    -2.64300e-20
378.65095    -8.82600e-20
378.67167    -3.09000e-20
378.69243    -1.69600e-20
378.71315    -8.96500e-20
378.73391    -9.89800e-20
378.75465     2.68400e-20
378.77541     7.06700e-20
378.79614    -3.74600e-20
378.81691    -6.96100e-20
378.83769     9.36500e-20
378.85843     2.33900e-19
378.87920     1.91900e-19
378.89996     1.49400e-19
378.92073     2.82200e-19
378.94148     4.05100e-19
378.96226     3.20200e-19
378.98303     1.67400e-19
379.00381     1.22300e-19
379.02457     6.72800e-20
379.04537    -8.38400e-20
379.06613    -1.20000e-19
379.08693     1.52700e-19
379.10769     4.71600e-19
379.12851     4.33900e-19
379.14931     1.57300e-19
379.17008     5.60100e-20
379.19090     2.09000e-19
379.21168     2.70900e-19
379.23249     1.28200e-19
379.25327     4.50300e-20
379.27410     1.43300e-19
379.29488     2.31900e-19
379.31570     1.24800e-19
379.33651    -7.91600e-20
379.35733    -1.14200e-19
379.37813     9.82800e-20
379.39896     3.39900e-19
379.41977     3.98500e-19
379.44060     2.91300e-19
379.46141     1.94100e-19
379.48226     1.80900e-19
379.50310     1.89900e-19
379.52391     1.31100e-19
379.54475     4.01400e-20
379.56559    -2.81300e-20
379.58643    -7.97900e-20
379.60726    -1.58000e-19
379.62812    -1.27400e-19
379.64895     1.70000e-19
379.66981     5.13400e-19
379.69065     5.00000e-19
379.71151     9.44400e-20
379.73235    -2.68600e-19
379.75321    -2.37400e-19
379.77407     1.82400e-20
379.79494     1.13800e-19
379.81581     1.30700e-20
379.83667     1.51100e-21
379.85755     1.25900e-19
379.87840     1.73700e-19
379.89929     1.46800e-19
379.92016     2.37400e-19
379.94104     4.07300e-19
379.96190     3.41200e-19
379.98281    -2.16000e-20
380.00367    -2.59500e-19
380.02457    -1.20500e-19
380.04544     1.09100e-19
380.06636     1.08500e-19
380.08723     9.87200e-20
380.10814     3.11300e-19
380.12906     4.73600e-19
380.14994     2.55400e-19
380.17085    -9.48800e-20
380.19174    -6.01300e-20
380.21267     3.38500e-19
380.23356     5.21000e-19
380.25448     3.24200e-19
380.27539     1.18300e-19
380.29632     1.28300e-19
380.31721     1.54800e-19
380.33815     2.46100e-20
380.35906    -6.76000e-20
380.38000     4.04700e-20
380.40091     2.35800e-19
380.42186     3.41900e-19
380.44280     2.82500e-19
380.46372     1.30700e-19
380.48467     5.21700e-21
380.50560    -1.49900e-20
380.52655     8.19900e-20
380.54748     1.99500e-19
380.56845     2.99600e-19
380.58938     3.87900e-19
380.61034     3.85300e-19
380.63127     2.21700e-19
380.65225     1.89900e-20
380.67319     8.76200e-20
380.69416     3.75400e-19
380.71512     4.59000e-19
380.73609     1.68600e-19
380.75707    -1.74000e-20
380.77802     2.10100e-19
380.79902     4.16900e-19
380.81997     2.20000e-19
380.84096    -1.03800e-19
380.86193    -4.66900e-20
380.88292     2.30000e-19
380.90389     2.13100e-19
380.92488    -1.25200e-20
380.94586     6.54100e-20
380.96686     4.65800e-19
380.98784     7.20500e-19
381.00886     6.09400e-19
381.02984     4.26600e-19
381.05084     3.92200e-19
381.07184     3.32200e-19
381.09286     1.19400e-19
381.11387    -2.54600e-20
381.13486     5.02600e-20
381.15590     2.59600e-19
381.17689     4.77700e-19
381.19792     6.04600e-19
381.21893     5.54700e-19
381.23996     2.69400e-19
381.26096    -1.51200e-21
381.28200     4.96100e-20
381.30302     2.68800e-19
381.32406     2.22700e-19
381.34507     1.17500e-20
381.36613     1.11500e-19
381.38715     5.78100e-19
381.40820     7.82800e-19
381.42925     3.67200e-19
381.45029    -1.08000e-19
381.47134    -6.46300e-20
381.49237     3.04400e-19
381.51345     4.60400e-19
381.53448     3.87600e-19
381.55554     4.94500e-19
381.57658     7.06000e-19
381.59767     6.73200e-19
381.61871     4.34300e-19
381.63978     3.40900e-19
381.66085     4.08800e-19
381.68192     2.73600e-19
381.70298    -4.44200e-21
381.72406    -2.55600e-20
381.74516     2.61900e-19
381.76622     3.75700e-19
381.78731     1.50300e-19
381.80839    -8.03400e-20
381.82948    -4.23100e-20
381.85055     9.09300e-20
381.87165     1.07800e-19
381.89274     1.17800e-19
381.91384     2.08800e-19
381.93492     2.06800e-19
381.95605     2.45800e-21
381.97713    -1.70200e-19
381.99824     2.31200e-21
382.01933     3.44500e-19
382.04046     4.54800e-19
382.06158     2.98200e-19
382.08268     2.06400e-19
382.10382     3.54600e-19
382.12491     4.84400e-19
382.14605     3.47200e-19
382.16715     9.89300e-20
382.18830    -4.20100e-20
382.20941    -3.72100e-20
382.23055    -5.90100e-20
382.25167    -9.47500e-20
382.27282     4.23100e-20
382.29393     1.92000e-19
382.31508     8.04900e-20
382.33622    -1.08800e-19
382.35737     7.45700e-20
382.37853     4.54000e-19
382.39967     4.37800e-19
382.42083    -6.59200e-20
382.44197    -3.70200e-19
382.46313    -1.09100e-19
382.48429     2.34500e-19
382.50546     1.41400e-19
382.52660    -1.43000e-19
382.54779    -1.46900e-19
382.56894     3.07800e-21
382.59011    -5.08400e-20
382.61127    -2.23000e-19
382.63247    -2.01900e-19
382.65362    -6.19500e-20
382.67481    -2.39300e-20
382.69599     4.04600e-20
382.71718     2.71300e-19
382.73838     3.91900e-19
382.75956     1.97700e-19
382.78076    -8.67700e-22
382.80193     7.59300e-20
382.82314     1.87800e-19
382.84433     1.10900e-19
382.86554     7.03500e-20
382.88672     2.66500e-19
382.90794     4.57200e-19
382.92914     3.70000e-19
382.95036     1.59100e-19
382.97155    -1.67200e-20
382.99279    -2.68100e-19
383.01399    -4.72000e-19
383.03522    -2.99000e-19
383.05646     2.68800e-19
383.07767     6.27500e-19
383.09890     3.75300e-19
383.12011    -1.66900e-20
383.14137    -1.34800e-19
383.16258    -1.25400e-19
383.18382    -1.94200e-19
383.20506    -1.67700e-19
383.22631     5.19800e-20
383.24753     1.32100e-19
383.26878    -1.19700e-19
383.29003    -2.82600e-19
383.31129    -8.51000e-20
383.33252     6.61300e-20
383.35380    -7.77500e-20
383.37506    -2.46000e-19
383.39630    -1.72300e-19
383.41757    -6.20900e-20
383.43883    -6.35100e-20
383.46011    -4.96500e-20
383.48136     6.25700e-20
383.50265     1.48400e-20
383.52391    -2.27700e-19
383.54519    -3.11600e-19
383.56645    -4.66000e-20
383.58775     2.97000e-19
383.60902     4.42200e-19
383.63031     4.15500e-19
383.65159     3.00800e-19
383.67289     1.62800e-19
383.69419     1.60500e-19
383.71547     4.18400e-19
383.73679     6.11900e-19
383.75807     4.17400e-19
383.77938     1.41100e-19
383.80068     2.16800e-19
383.82200     5.13400e-19
383.84328     5.17800e-19
383.86460     1.88200e-19
383.88591    -1.01300e-19
383.90724    -2.11500e-19
383.92854    -2.73700e-19
383.94988    -2.19700e-19
383.97118     3.74400e-20
383.99252     8.40400e-20
384.01383    -1.62400e-19
384.03518    -1.82400e-19
384.05652     2.91300e-19
384.07784     5.67300e-19
384.09920     1.93100e-20
384.12052    -5.29800e-19
384.14187    -2.41500e-19
384.16319     4.43600e-19
384.18457     3.76000e-19
384.20590    -3.56800e-19
384.22726    -6.80800e-19
384.24860    -3.95500e-19
384.26997    -2.01100e-19
384.29131    -2.28700e-19
384.31268    -4.11600e-20
384.33404     3.20000e-19
384.35541     2.16600e-19
384.37679    -2.69400e-19
384.39816    -2.84800e-19
384.41954     2.21500e-19
384.44089     4.03200e-19
384.46228    -2.49600e-21
384.48365    -3.53500e-19
384.50505    -2.57700e-19
384.52641    -9.83300e-20
384.54782    -1.95300e-19
384.56919    -2.31500e-19
384.59059    -1.02400e-19
384.61198    -1.42200e-19
